File: Raman conodonts/Data sets/Sample spectra all.csv
Prox,Proy,Pany,Excay,Bispy,Tripy,Paly
424.549,5354.1,3832.3,4111.9,2221.8,6757.7,7427.5
426.065,5436.7,3758.5,4132.9,2292,6806.8,7468.2
427.58,5469.4,3986.2,4193.7,2469.3,6814.8,7488.1
429.095,5432.2,3914.6,4226.1,2426.8,6845.1,7516.5
430.61,5636.8,4003.3,4254.8,2523.9,6830.5,7485
432.124,5501.4,4006.5,4248.2,2552.4,6840.7,7491
433.638,5531.2,3951,4280,2667.3,6815.2,7475.7
435.151,5624.1,3892.1,4261.2,2446.2,6855.8,7456.5
436.664,5519.1,3948.4,4274.3,2588.5,6840.9,7456.6
438.177,5557.5,3907.9,4267.6,2508.7,6803.9,7424.2
439.689,5460,3867.8,4220.3,2411.1,6798.5,7434.1
441.2,5498.7,3987.7,4250.9,2630.6,6808.6,7421.3
442.711,5608,3984.6,4225.7,2704.8,6831.2,7413.8
444.222,5545.2,3986.3,4283.1,2471.9,6794.6,7414.3
445.732,5451.7,3973.3,4240.9,2575.8,6795.9,7429.2
447.242,5482.1,3934.9,4233.2,2575.3,6800.3,7410.3
448.752,5628.3,3987.4,4297.9,2645.4,6790.2,7417.1
450.261,5615.3,4035.5,4312.7,2769.7,6836.9,7424.6
451.769,5569.5,4050.5,4391.7,2710.6,6826.1,7427.7
453.277,5591.5,3985.8,4330.5,2636.6,6806,7415.8
454.785,5619.8,4046.8,4396.8,2677.6,6828.3,7402.8
456.292,5606.3,4060.8,4323.2,2803.3,6829.1,7398.3
457.799,5665.9,4103,4310.7,2672.1,6835.4,7408.1
459.306,5544.6,3892.9,4324,2500,6768.6,7379.5
460.812,5447.2,3971,4244.3,2570.4,6735.2,7394.8
462.317,5509,3912.3,4184.9,2570.4,6772.5,7370.5
463.822,5496.6,3970.2,4309.8,2572.8,6754.5,7381.8
465.327,5572.1,3972,4233.9,2539.4,6775.1,7374.2
466.831,5584.4,4070.8,4387.3,2743.1,6816.9,7365.6
468.335,5644.4,4059.1,4379.6,2739.4,6844.9,7364.2
469.839,5599.6,4019.4,4298.8,2727.7,6765.1,7383
471.342,5599.2,4060.6,4322.1,2760.7,6762.7,7359.2
472.844,5631.2,4069.5,4315.7,2682.9,6832.2,7363
474.346,5503.1,4011.9,4357.3,2753.8,6819.5,7385.4
475.848,5510.3,4099.2,4342.1,2797.5,6805.8,7359.1
477.349,5594.4,4114.5,4375.4,2799.3,6811.4,7354.3
478.85,5587.7,4143.4,4402.8,2760.7,6793.8,7370.1
480.351,5553.9,4084.9,4365.7,2759.4,6785.3,7359.4
481.851,5587.7,4095.5,4419.8,2799,6838.3,7348.2
483.35,5592.4,4134.2,4298.8,2777.9,6853.8,7387.9
484.85,5546,4153.9,4376.9,2672.1,6807.4,7370.7
486.348,5547.7,4147.9,4420.9,2791.5,6824.3,7346.6
487.847,5599.4,4074.7,4294,2787.3,6798.5,7335.9
489.345,5520.5,4110.7,4325.8,2758.8,6766.1,7326.7
490.842,5565.1,4116.4,4376.3,2817.5,6825.1,7347.3
492.339,5548.7,4044.1,4319.7,2714.7,6853.2,7363.7
493.836,5520.2,4089,4298.3,2796.3,6790.5,7338.3
495.332,5553.6,4043.1,4357.3,2794.7,6796.9,7337.8
496.828,5591.3,4083.4,4377.8,2772.5,6804,7345.7
498.323,5533.4,4161.9,4366.6,2735.6,6820.3,7340
499.818,5640.9,4113.3,4423.5,2798,6796.7,7346.7
501.313,5542.4,4121.3,4385.3,2855.3,6829.8,7338
502.807,5565.8,4098.6,4392.1,2750.6,6754.6,7337.1
504.301,5553.8,4177.1,4310.6,2744.3,6854.7,7336.2
505.794,5612,4168.9,4394.1,2798.5,6836.8,7333.3
507.287,5579.7,4122.5,4327.2,2738.2,6783.7,7330.1
508.779,5548,4167.2,4371.7,2747.8,6797.6,7362.9
510.271,5564.1,4154.3,4341.1,2901.3,6795.6,7327.8
511.763,5588.3,4138.2,4423.1,2864.9,6769.2,7337
513.254,5639.6,4233.5,4418.3,2865,6779.7,7334.9
514.745,5666.4,4219.3,4399.7,2990.6,6814.5,7332.1
516.235,5624.2,4154.4,4417.2,2935.2,6816.8,7323.4
517.725,5623.4,4184.9,4477.7,2920.4,6864.6,7309.4
519.215,5740.8,4304.7,4450.7,3024,6853.3,7346.5
520.704,5581.5,4251.6,4465.6,2966.9,6823,7321.7
522.192,5670,4246.1,4502,2976,6867.9,7329.5
523.681,5731.9,4304.6,4505.9,3110.1,6876.2,7326
525.168,5731.4,4357.7,4513.5,3050.3,6852.9,7335.9
526.656,5719.1,4394.7,4491.9,3118.7,6825,7317.2
528.143,5718.7,4378.4,4503.5,3157.3,6861.8,7345.4
529.629,5734.8,4293.4,4563.7,3176.7,6828.7,7329.9
531.116,5798.6,4399.8,4553.3,3243.9,6890.1,7336.9
532.601,5814.7,4448,4619.2,3174.5,6873.8,7340.2
534.087,5769.5,4497,4664.1,3238.7,6907,7337.5
535.572,5833.5,4462,4624.9,3236.6,6892.9,7334.7
537.056,5910.1,4617.8,4683.1,3462.8,6936.2,7343.2
538.54,5926.8,4600.7,4713.3,3537,6935,7339.5
540.024,5950.3,4640.2,4742.1,3556.2,6985.4,7347.5
541.507,6013.4,4576.9,4756.3,3483.1,6978.3,7365.8
542.99,5990.7,4672.8,4740.1,3517.4,6880.9,7342.6
544.472,6064.1,4638.6,4722.1,3582.6,6968,7351.3
545.954,6029.4,4650.2,4770.3,3660,7006.6,7357.7
547.436,6067.7,4699,4837.3,3713.4,6996.1,7345.9
548.917,6063.1,4801.8,4832.9,3666.9,7027.5,7345.7
550.398,6084.1,4723.2,4863.7,3713.2,6986.5,7351.3
551.878,6047.5,4834,4854.6,3743.8,7031.4,7367.6
553.358,6086,4688,4850,3828.9,7005.7,7344.6
554.838,6119.1,4842.3,4877.7,3934.8,7030.5,7383.6
556.317,6107.6,4897.4,4904.3,3803.8,7049.4,7347.5
557.796,6094.6,4815.8,4925.1,3806.9,7010.3,7326.4
559.274,6123.1,4820.8,4954.7,3850.5,7001.7,7363.2
560.752,6273,4869.3,5027.3,3990.9,7053,7350.2
562.229,6159.2,4871.1,4951.5,4004.1,7012.4,7348.8
563.706,6093.3,4903.5,4938,3795.9,7023.9,7361.7
565.183,6090.4,4861.7,4912.7,3986.8,6974.9,7355.3
566.659,6043.6,4816.2,4949.8,3875.8,7002.8,7356.5
568.135,6061.4,4915.8,4966,3908,7061.3,7336.1
569.61,6125.5,4835.8,4924.2,3976.3,7041,7380.5
571.085,6154.5,4829.1,4956.9,3956.6,7004.5,7350.1
572.56,6114.9,4898.5,4959.5,4005.3,7073.2,7388.6
574.034,6140.4,4860.6,5006.3,3969.5,7093.6,7361.8
575.508,6176.3,4977.9,5013.1,4033.3,7105.4,7350.8
576.981,6154.7,4908.9,5007,4043.9,7036.4,7379.6
578.454,6159.2,4965,5000.8,4136.6,7075,7377.6
579.927,6217.6,4970.1,4988.8,4198.2,7094.6,7382.9
581.399,6307.6,5043.6,5050.5,4176.5,7126.8,7386.5
582.87,6115.7,4991.3,4989.8,4104.5,7103.9,7400.3
584.342,6209.8,4940,4929.8,4059,7111.4,7378.8
585.813,6135.4,4941.6,4973.5,4090.4,7079.1,7368.2
587.283,6099.1,4985.1,5004.1,4051.1,7136,7443.6
588.753,6143.3,5055.7,5117.6,4174.6,7145.6,7458.7
590.223,6171.7,5052.5,5021.2,4305.7,7186.9,7494.5
591.692,6145.2,5073.3,5034.8,4162.6,7125.9,7506.7
593.161,6016.9,4963.6,5008.7,3954.6,7115.5,7427.1
594.629,6026,4889.2,4897.3,3981.6,7052.5,7409.3
596.097,5991.8,4976.9,4868.1,4011.7,7030.4,7392
597.565,6077.4,4937.9,4937,3903.8,7069.4,7373.1
599.032,6066.5,4906.4,4994.4,4119.4,7079.8,7381.9
600.499,5969.1,4942.1,5047.3,3996.6,7037.8,7387
601.965,6017.2,4899.5,4988.5,4067.3,7068.6,7384
603.431,5998.2,4964.3,5019.4,4177.7,7049.3,7416.4
604.897,6122.4,4997.2,5076.5,4244.4,7125.2,7422.1
606.362,6086.2,5031.5,5060.7,4290.5,7060.9,7445.8
607.827,6177.7,5086.4,5086.5,4310,7093.9,7397.8
609.291,6120.9,5042.9,5014.4,4204.2,7078.1,7374.1
610.755,6132.3,4999.1,5049.1,4344.5,7064.7,7372.1
612.219,6161.8,5046.5,5129.5,4214.4,7074.8,7387.4
613.682,6026.8,4988.9,5059.8,4161.1,7097,7375.6
615.145,6132.1,5078.7,5130.7,4308.2,7087.2,7387.7
616.607,6140.3,5113.4,5072,4183.2,7034.5,7377.5
618.069,6142.1,5014.2,5077.3,4374.3,7034.3,7381.2
619.53,6200.3,5137.4,5122.1,4447.2,7085.7,7362.3
620.992,6160.1,5227.3,5218.1,4389,7103.2,7363.7
622.452,6217.2,5134.7,5162.7,4444.2,7123.8,7383.5
623.913,6191.4,5196.6,5237.7,4388.3,7114.2,7362.6
625.373,6219,5173.5,5295.5,4607,7151.6,7374.5
626.832,6254.7,5297.7,5316.4,4647.7,7149.7,7383.7
628.291,6316.8,5300.7,5297.2,4616.2,7185.4,7385.5
629.75,6399.2,5244.1,5251.4,4615,7140.1,7379.6
631.208,6223.7,5348.7,5280,4597.2,7124.4,7397.7
632.666,6256.8,5344.7,5333,4739.1,7161.1,7378
634.124,6363.2,5370.4,5319.2,4757.6,7149,7389.6
635.581,6433.2,5433,5313.9,4733.3,7177.8,7406.1
637.037,6307.9,5416.6,5340.2,4824.6,7209,7383.2
638.494,6388.6,5422.9,5427.5,4767.5,7159.7,7392.2
639.95,6336.5,5369.8,5306.9,4737,7175.8,7410.6
641.405,6346.4,5402.6,5402.6,4789,7225.9,7386.5
642.86,6416.3,5444.2,5373.6,4879.2,7147.3,7392.3
644.315,6417,5477.3,5384.2,4823.8,7228.7,7392.4
645.769,6360.9,5431.6,5452.1,4876.1,7211.4,7390.8
647.223,6408.6,5471.5,5437.8,4848.6,7203.7,7393.7
648.677,6392.9,5496.6,5400.4,4984.2,7186.7,7422.3
650.13,6463.7,5511.6,5556.4,5010.8,7190.6,7391.7
651.582,6472.6,5550.8,5517.8,5044,7254.4,7405.4
653.035,6464.7,5593.6,5532.7,5065.2,7239.4,7389.8
654.487,6491.7,5676.5,5522.9,5027.7,7267.7,7399.7
655.938,6501.4,5557.5,5467.9,5095.5,7192.2,7402.3
657.389,6486,5555.6,5505.7,5080.5,7245.6,7410.2
658.84,6492,5525.3,5550.8,5042.3,7306.3,7400.6
660.29,6480.5,5600.4,5564.4,5001.5,7223.2,7415.7
661.74,6444.1,5610.2,5524.3,5115.4,7251.5,7389.1
663.19,6430.3,5694.7,5511.4,4973.9,7220.2,7397.3
664.639,6375.9,5553,5456.8,5091,7209.2,7395
666.087,6385.5,5593.1,5507.1,5049.5,7230.1,7397.1
667.536,6374.5,5594.5,5521.4,4957.6,7173.1,7398.6
668.984,6390.3,5632.4,5415.5,5043,7212,7413.6
670.431,6349.3,5621.1,5517.1,4967.5,7222.7,7423
671.878,6344.4,5504.6,5497.9,5018.9,7201.2,7405
673.325,6390.6,5617.8,5546.2,4989.9,7245.4,7400.9
674.771,6335.2,5487.8,5531.7,4916.9,7240.5,7414.5
676.217,6296.9,5496.4,5413.8,4891.6,7180,7393
677.663,6238.6,5505.5,5409.8,4900.4,7147.5,7428.6
679.108,6199.7,5439,5426.8,4835.4,7203.4,7381.8
680.553,6247.8,5460.1,5454.6,4756.1,7142,7398.2
681.997,6332.3,5355.5,5488.7,4841,7171.3,7405.6
683.441,6316.1,5466.2,5499.9,4901.2,7229.6,7402.5
684.885,6240.3,5466,5465.5,4841.6,7140.8,7406.6
686.328,6231.4,5456.3,5463.3,4805.2,7151.7,7413.5
687.77,6347.8,5479.4,5444.6,4792.9,7210,7401.9
689.213,6272.9,5477.5,5495.3,4927.8,7131.1,7406.4
690.655,6294.3,5440.7,5422,4820.7,7174.7,7388.6
692.096,6283.8,5360.1,5497,4838.1,7110.5,7395.8
693.538,6256.2,5377.3,5473.6,4869.6,7182.1,7420.1
694.978,6206.4,5425.5,5502.4,4790.4,7167.9,7389.6
696.419,6174.1,5462.2,5514.7,4799.4,7199.1,7418.9
697.859,6235.5,5521.5,5489,4933.7,7130.3,7418.2
699.298,6243.8,5534.4,5510.5,4896,7209.6,7413.7
700.738,6246.4,5541.5,5530.8,4951.6,7181,7404.5
702.177,6279.8,5518.2,5494.1,4946.4,7230.7,7389
703.615,6280.6,5611.6,5573.2,5042.9,7187.5,7398.9
705.053,6227.9,5457.6,5512.2,4944.3,7180.1,7395.5
706.491,6315.4,5570.4,5619.4,5036.9,7234.9,7404.9
707.928,6317.2,5618.8,5615.9,5047.6,7208.5,7411
709.365,6385.2,5620.4,5551.6,5113.5,7189.3,7398.4
710.801,6384.5,5682.9,5590.8,5106,7229.4,7423.9
712.237,6343.8,5686.4,5573.7,5097.3,7178.4,7397.7
713.673,6384.8,5626.5,5706,5160.5,7255.1,7407.8
715.108,6395.4,5646.1,5692.8,5159.1,7263,7424.1
716.543,6378.8,5754.9,5611.5,5125.9,7234.8,7408.6
717.978,6406.8,5759.5,5715.9,5240.7,7251.8,7417.5
719.412,6412.2,5712.3,5764.4,5318.9,7260.1,7416.2
720.846,6452.8,5716.8,5720,5161.5,7263.2,7431.2
722.279,6510.5,5831.6,5720.9,5304.8,7296.6,7415.5
723.712,6480.3,5805.4,5793,5383.8,7234.3,7413.1
725.145,6469.6,5778.7,5782.4,5290.3,7238,7418
726.577,6541.4,5927.2,5824.9,5438.2,7291.3,7415.9
728.009,6571.1,5985.1,5938.9,5472.2,7341.9,7412.6
729.44,6595.4,5977.1,5900.2,5405.8,7313.2,7409.3
730.871,6539.6,5888.5,5918,5515.9,7309.5,7419.4
732.302,6530.9,5939.7,5886,5568.4,7284.7,7414.8
733.732,6561.2,5891.1,5883.9,5593.2,7315.7,7413.4
735.162,6652.7,6007.5,5907.4,5581.3,7331.8,7425.1
736.591,6697.2,6014.3,6007.8,5633.3,7330.3,7428.1
738.021,6605.5,5997.6,5996.9,5631.9,7286.1,7405.5
739.449,6714.9,5958.5,5965.9,5502.7,7360.5,7408.9
740.878,6675.6,6095,5940.2,5707.3,7356.4,7436.8
742.306,6704.4,6050.4,6014.2,5583,7324,7439.6
743.733,6703.8,6093.6,6036.2,5750.4,7320.4,7417.6
745.16,6694.6,6035.3,5998.9,5621.7,7319.7,7393.2
746.587,6740.9,6101.6,6023.8,5732.1,7323.9,7426.6
748.013,6695.3,6130.2,6039,5786.1,7341.9,7433.5
749.439,6750.5,6095.4,6064.1,5801.1,7294.2,7410.3
750.865,6650.1,6100.2,6101,5626.9,7381.2,7419.8
752.29,6798,6074.8,5966.2,5788.7,7320.9,7415
753.715,6744.8,6144.1,6056.9,5678.8,7300.5,7428.1
755.14,6741.7,6155.4,6136.2,5820.2,7314.9,7428.1
756.564,6723.8,6118.8,6119.8,5685.5,7295.3,7413.5
757.987,6785.3,6090.1,6034.6,5753.9,7299.4,7411.4
759.411,6698,6139.7,6006.6,5755.9,7315.2,7411.8
760.834,6728.8,6088.8,6070.9,5871.2,7371.1,7410.5
762.256,6812.1,6153.1,6119.5,5781.2,7349.6,7428.6
763.678,6662.1,6235.5,6139.4,5856.8,7354.7,7399.4
765.1,6742.1,6133.5,6084.9,5857.3,7283.4,7423.6
766.521,6712.4,6222.4,6054.2,5845.3,7316.4,7399.9
767.942,6684,6161,6182.5,5859.7,7322.2,7397.5
769.363,6773.2,6218.5,6097.5,5804.1,7395.8,7395.3
770.783,6753.7,6164.1,6104.3,5810.2,7348.1,7410
772.203,6816,6246.4,6175.4,5932.3,7365.4,7417.3
773.623,6795.7,6226.6,6145,5895.7,7299.6,7408.3
775.042,6841.7,6216.3,6272.5,5877.4,7329.5,7408.5
776.461,6724.3,6185.5,6118.7,5792.6,7302.3,7408.2
777.879,6819.7,6220.5,6169.2,5922,7350.5,7400.3
779.297,6780,6224.3,6178.6,5938.5,7332.8,7391.5
780.714,6782.5,6245.5,6150.2,5736.7,7327,7397.8
782.132,6728.3,6256.8,6097.8,5836.6,7329.3,7374.4
783.548,6763.7,6260.1,6195.5,5795.9,7326.1,7387.2
784.965,6763.3,6169.2,6148.7,5837.2,7371.4,7394.5
786.381,6682.7,6257.3,6185.6,5790.9,7294.7,7392.3
787.797,6760.2,6203.6,6171.2,5880.7,7304.2,7391.9
789.212,6679.4,6274.3,6181.8,5855.1,7311.4,7374.9
790.627,6752.2,6235.1,6142.5,5886.5,7311.3,7386.9
792.041,6731.1,6257.4,6132.5,5881.7,7321.9,7391.7
793.455,6669.1,6284,6189.5,5874,7334,7382
794.869,6663.7,6263.7,6176.7,5948.6,7330,7380.4
796.283,6741.9,6268.5,6201.5,5860.6,7292.3,7375.7
797.696,6707.7,6256.5,6169.3,5976.9,7301.7,7388.5
799.108,6749.1,6240,6191.7,5864.8,7330.1,7388.2
800.52,6758.9,6187,6211.6,5963,7340.1,7383.4
801.932,6827.2,6315.4,6230,5892.5,7323.5,7392.8
803.344,6611.9,6183.8,6164.9,5797.1,7260.2,7389.9
804.755,6661.7,6235.8,6157.5,5796.4,7314.2,7379.4
806.166,6611.2,6177.5,6178.4,5816.6,7304.3,7360.6
807.576,6689.2,6217.8,6158.8,5850.1,7317.4,7374.8
808.986,6597.6,6205,6270.4,5989,7298.9,7370.1
810.396,6721.8,6225.4,6241.2,5872.2,7326.9,7383.3
811.805,6734.4,6302.3,6249.4,6023.5,7333.9,7378
813.214,6746.3,6342.5,6202.5,6053.9,7289.3,7354.1
814.622,6887.7,6333.4,6349.8,6106.8,7336.7,7398.8
816.03,6710.8,6266.1,6233.2,6050.6,7338.4,7379.9
817.438,6720.3,6260.9,6275.1,6008.3,7340.4,7366.6
818.845,6755,6282.3,6194.6,6011.1,7366.9,7369.8
820.252,6792.7,6329.5,6271.2,5883.9,7334.3,7360.9
821.659,6716.8,6322.9,6234.6,5926.7,7336.1,7376.1
823.065,6715.8,6289.3,6265.7,5968.8,7312.9,7356.2
824.471,6815.1,6360.2,6308.7,6003.6,7294.9,7377.1
825.877,6875.8,6327.3,6283.8,6001.5,7330.6,7378.6
827.282,6812,6369.9,6345.5,6131.9,7337.7,7369.5
828.686,6827.2,6502.7,6390.2,6186.1,7331.5,7374.9
830.091,6813.7,6328.4,6275,6162.4,7320.6,7364
831.495,6808.9,6409,6326.8,6202.5,7305.3,7382
832.898,6780.5,6266.8,6259.1,5933.9,7330.4,7385.6
834.302,6790.4,6406.3,6337.1,6083.8,7318.5,7371.8
835.704,6851.5,6417.5,6385.1,6148.2,7345.4,7374.4
837.107,6819.4,6366.2,6336.6,6127,7320.7,7367.5
838.509,6781.6,6452.4,6347.1,6071,7346.8,7359.8
839.911,6726.2,6398.8,6336.2,6135.2,7328.7,7384.3
841.312,6891.3,6414.8,6339.2,6140.3,7319.4,7384.3
842.713,6825.3,6395.2,6412,6185.2,7329,7368.8
844.114,6863.5,6486.7,6299,6194.7,7358.7,7385.8
845.514,6857.5,6454.3,6372.6,6176.5,7348,7337.7
846.914,6939.6,6367,6386.3,6228.3,7354.6,7377
848.313,6857.5,6451.8,6381.9,6203,7354.7,7361.2
849.712,6942.3,6425.7,6433.1,6318.9,7373.9,7374.1
851.111,6846.2,6458.8,6411.3,6287.9,7359.9,7375.1
852.51,6967.2,6452.1,6476.2,6230.7,7398.1,7376.8
853.908,6823.5,6541.6,6489.7,6222.9,7363.3,7360.5
855.305,6997.5,6553.4,6466.8,6383.4,7426.4,7390.8
856.703,6973.2,6520.1,6504,6329.5,7392.2,7367.5
858.099,6894,6498.5,6519.5,6298.3,7381.7,7367.6
859.496,7008.9,6575.1,6564.1,6421.3,7394.1,7358.6
860.892,7045.3,6714.8,6579.9,6479.6,7398.5,7384.4
862.288,7055,6688,6556.7,6372.5,7414.4,7374.6
863.683,7007.2,6697.8,6476.8,6404.7,7458,7376.9
865.078,6988.3,6618.3,6497.7,6475.5,7396.4,7396.8
866.473,7122.1,6675.2,6470.1,6506.8,7405.9,7370.6
867.867,7134.7,6737.7,6539.5,6565.7,7438.6,7402.2
869.261,6964.2,6697.8,6622.2,6505.5,7452.4,7382.4
870.655,7147.5,6722.7,6529.3,6484.1,7434.4,7377.3
872.048,7062.8,6783.8,6554.5,6499.5,7459.1,7391.2
873.441,7064.9,6692.6,6627.5,6551,7427.8,7384.7
874.833,7102.7,6789.2,6654.8,6593.6,7499.5,7405.3
876.226,7040.2,6763.4,6612.5,6587.7,7396.3,7402.1
877.617,7038.4,6776.3,6565.8,6568,7453.4,7380.4
879.009,7171,6711.3,6546.2,6554.5,7466.6,7418
880.4,7086.3,6796.7,6625.3,6658.8,7445.1,7405.7
881.79,7132.1,6768.8,6604.6,6508.5,7409.3,7384.7
883.181,7060,6772.7,6566.8,6676.2,7435.5,7381.5
884.571,7154.4,6698.8,6587.4,6624.8,7375.1,7403.8
885.96,7088.9,6779.5,6564.8,6673,7431.4,7382.9
887.349,7150.8,6849.1,6654.3,6625.3,7438.5,7389.7
888.738,7057.9,6782.4,6646.2,6690,7437.3,7388.4
890.126,7113.3,6822.3,6654.8,6692.5,7461.5,7389.8
891.515,7148.4,6791.5,6623.5,6709.2,7448.2,7380.4
892.902,7202.7,6792.4,6709.4,6672.6,7438,7392.2
894.29,7113.6,6829.1,6597,6682,7471.9,7391.5
895.677,7105.6,6754,6652.3,6589.2,7431.5,7386.8
897.063,7122,6847.9,6652.4,6692,7441.8,7401.7
898.449,7084.2,6860.9,6614.8,6635.8,7392.3,7395.6
899.835,7135.6,6786.3,6574.8,6693.4,7435.7,7377.1
901.221,7122.3,6871.9,6628.7,6732.3,7474.4,7393.3
902.606,7084.5,6868.6,6630.6,6622.6,7448.6,7388.8
903.991,7194.2,6852.3,6619.4,6776.1,7425,7393.1
905.375,7128.5,6832.7,6647,6737.5,7472.3,7396
906.759,7296.8,6952.5,6704.8,6781.4,7401.8,7374.6
908.143,7167.6,6901.2,6638.3,6823,7497.3,7405.7
909.526,7150.4,6871.6,6596.5,6718.9,7472.2,7395.5
910.909,7162.7,6966.9,6728.5,6772.6,7482.5,7370.5
912.292,7156.9,6892.2,6744.9,6694.5,7450.2,7375.9
913.674,7232.8,7093.5,6703.2,6804.2,7471.2,7390.1
915.056,7331.3,7011.9,6715.1,6869.3,7462,7395.3
916.438,7263.7,6924.2,6618.2,6739.8,7501.5,7364.9
917.819,7199.7,6928,6715.9,6786.6,7470.3,7391.8
919.199,7246.6,7013.7,6698.3,6797.6,7519.9,7375.8
920.58,7289.6,7023.3,6667.3,6882.8,7472.3,7399.4
921.96,7249.5,7020.3,6612.1,6739.9,7415.2,7387.5
923.34,7138.6,6992.9,6712,6763.5,7428.1,7399.5
924.719,7160.5,6936.7,6670,6784.8,7460.4,7412
926.098,7256.8,6990.4,6758,6965.9,7491.4,7395.2
927.477,7232.3,7095.2,6827.7,6839.8,7500.4,7407.6
928.855,7203.3,7010.4,6746.1,6974.8,7453.5,7413.2
930.233,7142.6,6992,6658.5,6781.8,7497.5,7400.6
931.61,7263.9,7129.5,6730.7,6929.7,7438.4,7410.6
932.988,7302.1,6989.3,6692.9,6875.5,7491.8,7396.6
934.364,7230.6,7076.9,6703.7,6951.3,7485.7,7401.9
935.741,7330.7,7080.3,6779,6996.5,7500.5,7430.8
937.117,7269.5,7173.2,6724.7,6973.2,7522.8,7394
938.493,7436.1,7219.1,6858.7,7129.7,7474.5,7424.8
939.868,7338.7,7189.6,6827.8,7172.4,7580.7,7438.1
941.243,7447,7238.2,6791.9,7202.7,7562.5,7434.9
942.618,7450,7340.9,6709.6,7139.6,7531.8,7401.2
943.992,7363,7234.8,6789.9,7095.5,7497.2,7443.2
945.366,7437.1,7274.8,6898.7,7161.1,7528.1,7447.5
946.74,7452.5,7254,6863.2,7187.3,7584.2,7474.2
948.113,7568.6,7362.9,6931.5,7315.9,7643.4,7451.8
949.486,7511.7,7363.8,6908.8,7337,7630.7,7478.8
950.858,7487.8,7440.2,7017.3,7341.4,7606.7,7476.2
952.231,7625.2,7584.4,7058.5,7469.9,7661.8,7494.9
953.602,7754.5,7657.1,7060.2,7537.6,7727.2,7521.5
954.974,7793.2,7711.5,7066.6,7691.5,7773.4,7531.8
956.345,7889.1,7889.5,7159.6,7896.6,7808.8,7573.7
957.716,7934.2,8020.4,7127.6,8011.3,7928.2,7627.4
959.086,8143.7,8308,7239.3,8294.8,8113,7744.6
960.456,8648.6,8700.4,7506,8938.9,8361.3,7987.7
961.826,9304.4,9434.6,7925.2,10152,8842.3,8406.3
963.195,10394.7,10521.7,8341.2,12200.5,9520.4,8802.8
964.564,10630.5,10865.2,8402.9,12587.9,9567.6,8755
965.933,9549.4,9733.4,7910.4,10808.9,8931.9,8217.6
967.301,8757.6,8716.8,7596.2,9261.5,8400.2,7870.7
968.669,8289.3,8283.8,7416.6,8428.1,8125.6,7709.1
970.036,7977.8,8092.7,7233.5,7983.7,7898.6,7617.9
971.403,7924.1,7889.4,7174,7898,7834.4,7577.9
972.77,7863.7,7870,7172.1,7798.7,7797.7,7557.1
974.137,7880.7,7871.3,7127.2,7865.8,7816.6,7534.6
975.503,7930.1,7833.3,7303.1,7895.5,7753.9,7500.9
976.869,7824.4,7871,7193.1,7951.2,7759.7,7490
978.234,7797.9,7717,7154.9,7810.1,7685.9,7492
979.599,7802.9,7710.9,7127.8,7718.2,7663.6,7497.4
980.964,7750.4,7678.6,7158.8,7732.4,7637.6,7491.8
982.328,7778.2,7718.2,7221.2,7834.5,7696.2,7498.4
983.692,7809.2,7728.8,7140.3,7590.7,7654.4,7515.9
985.056,7826.5,7793.3,7172.2,7711,7708.1,7495.9
986.419,7966.3,7806.7,7283.1,7886.2,7716,7500.9
987.782,7834.6,7727.8,7272.9,7936,7695.1,7507.2
989.145,7912.8,7887.6,7241.2,7972.1,7760.1,7510.4
990.507,7872,7876.7,7235.9,7854.7,7723.1,7523.4
991.869,7857.5,7873.9,7292.4,7948.2,7724.9,7523.8
993.23,7954.5,7913.2,7289,8009.6,7710.8,7525.9
994.591,7990.4,7996.7,7374.6,8075.6,7814.2,7529.7
995.952,7940.7,7889.4,7276.6,7943.8,7711.9,7520.3
997.313,7991.6,7965.7,7295.2,8019.9,7783.2,7506.5
998.673,8009.2,7953.8,7330,8011,7810.3,7517.5
1000.03,8112.7,8036.1,7355.1,8092.6,7820,7526.3
1001.39,7987.2,8005.1,7350.1,8174.5,7753.1,7533.7
1002.75,8080.9,8006.2,7334.6,8299.4,7812.4,7536.6
1004.11,8033.8,8197.5,7483,8150.2,7817.2,7527.5
1005.47,8045.6,8141.9,7371.6,8246.3,7806.2,7537.2
1006.83,8138.3,8176.5,7479.8,8343.6,7800.6,7561.5
1008.18,8167,8053,7444.7,8358.7,7834.5,7547.7
1009.54,8133.6,8210.9,7451.7,8272,7848.1,7550.2
1010.9,8176.1,8182.3,7527.9,8166.3,7837,7557.2
1012.25,8122.3,8191.2,7446.3,8196.5,7770.4,7553.6
1013.61,8114.2,8178.4,7506.6,8259,7812.9,7553.1
1014.97,8123.2,8090.4,7459.5,8226.5,7861.6,7556.2
1016.32,8176.7,8166.4,7544.9,8359.2,7856.9,7569
1017.68,8072.9,8172.2,7495.7,8220.3,7919.8,7556.2
1019.03,8218.7,8247.3,7502.2,8380,7879.9,7540.6
1020.39,8154.2,8200.8,7497.2,8261.6,7845.1,7555.3
1021.74,8105.3,8282.7,7589,8267.8,7835.9,7588.8
1023.1,8115,8161,7492.2,8308.1,7849.3,7575.9
1024.45,8173.4,8211.6,7601.6,8358.8,7880.1,7570.9
1025.8,8218.7,8166.9,7418.6,8187.5,7857,7579.4
1027.15,8188.7,8285.4,7612.3,8252.1,7869.2,7593.1
1028.51,8219.8,8221.7,7569,8447.1,7914.1,7579.3
1029.86,8170.6,8176.8,7552.1,8233.6,7866,7608.1
1031.21,8237.5,8260.9,7511.9,8398.5,7861.9,7616.3
1032.56,8270,8330.2,7563.8,8432.1,7909.3,7603
1033.91,8263.7,8376.4,7590.7,8539.8,7903.4,7599.7
1035.26,8132.7,8267.8,7536.8,8380.5,7910.3,7643
1036.61,8191.7,8251.5,7574.9,8484.3,7904.9,7639.2
1037.96,8261.2,8215.9,7579.6,8450.8,7893.1,7650.3
1039.31,8265.6,8288.7,7583.2,8420.6,7948.3,7668.8
1040.66,8390.9,8445.3,7638.2,8501.3,7976.1,7658.7
1042.01,8307.9,8406.1,7638.4,8589.9,7981,7633.6
1043.36,8308.6,8257.7,7615.9,8516.4,7965.3,7658.1
1044.71,8294.4,8303.4,7665.2,8530.4,7954.2,7644.4
1046.06,8370.6,8262.4,7656.7,8517.4,8044.4,7676.5
1047.4,8291.2,8333.7,7624.8,8505.8,8028.8,7686.1
1048.75,8289.3,8492.5,7693.6,8452,8062.2,7703.8
1050.1,8427.2,8522.4,7675.4,8443.5,8089.4,7759.7
1051.45,8397.3,8557.4,7729.2,8638.9,8150.4,7812.1
1052.79,8432.1,8529.1,7757.5,8604.8,8122.8,7771.8
1054.14,8452.7,8616.8,7740.3,8692,8101.5,7776.4
1055.48,8448.7,8533.1,7806.9,8795,8047.7,7701.9
1056.83,8470.9,8462.1,7848.5,8695.7,8051,7699.8
1058.17,8494.4,8576.2,7827.9,8787,8049.7,7676.7
1059.52,8587.4,8547.1,7824,8914.1,8060.9,7674
1060.86,8518.4,8596.1,7902.5,8760,8020.4,7679.4
1062.21,8583.6,8533,7811.5,8835.1,8086.9,7689.5
1063.55,8486.9,8610.4,7833.8,8880.5,8009.6,7682
1064.89,8558.8,8714.4,7889.2,8838.9,8047.6,7689.6
1066.24,8603.2,8657.3,7924.8,8924.9,8097.3,7683.1
1067.58,8601.5,8637.3,7843,8802.5,8077.6,7676.5
1068.92,8579.9,8699.3,7817.6,8924.6,8051.4,7697.4
1070.26,8630.3,8684.3,7888.7,8827.7,8029.9,7683
1071.6,8529.3,8635.3,7908.5,8927.5,8019.7,7677.3
1072.94,8609.1,8730.5,7897.7,8867.3,8047.7,7686.1
1074.28,8605,8754,7868,9077.5,8067.2,7724.6
1075.63,8668.8,8698.8,7967.3,8952.4,8083.8,7719.1
1076.97,8694.1,8762,7939,8950.5,8161.1,7760.7
1078.31,8689.6,8780,7991.6,9109.4,8125.9,7781.4
1079.64,8722.9,8826.5,7992.3,9132.1,8124.8,7807.4
1080.98,8673.9,8796.9,8067.8,9034.6,8130.6,7771.4
1082.32,8723.5,8840.3,8017.2,9146.3,8143.2,7749.8
1083.66,8745.3,8815.7,8024.4,9007,8069.4,7729.4
1085,8807,8852,7997,9123.1,8169.6,7714.7
1086.34,8781.2,8902.8,8121.2,9100.3,8114.9,7721.9
1087.67,8867.7,8877.1,8115.6,9256.4,8109.4,7729.2
1089.01,8882.8,8890.9,8185.5,9211.4,8130.9,7728.4
1090.35,8780.9,8936.5,8092.1,9181.1,8122.2,7720.7
1091.68,8919.4,9028.2,8216.4,9374.5,8131,7737.7
1093.02,8907.5,9191.6,8160.5,9439.8,8175.6,7745.2
1094.36,8932.3,9098.2,8181.9,9212,8133.6,7756.6
1095.69,8842.7,9050.8,8264.7,9318.8,8153.8,7743.6
1097.03,8824.8,9121.1,8200.3,9332,8146.4,7755.8
1098.36,8948.1,9090,8308.8,9447.2,8257.6,7750.7
1099.69,9052.1,9052.9,8156.7,9485.4,8167.9,7778.9
1101.03,9088.1,9165.3,8268.3,9407,8214.3,7770.4
1102.36,9160.4,9255.8,8340.8,9709.8,8247.4,7764.5
1103.7,9096.6,9236.6,8295,9534.7,8230.3,7774.5
1105.03,9048.4,9276.8,8365.7,9571.4,8173.6,7766.8
1106.36,9117.5,9276.2,8339.8,9684.4,8230.6,7794.1
1107.69,9166.9,9231,8369.4,9716.9,8247,7772.3
1109.03,9178.9,9237.2,8362.4,9648.5,8242.6,7806.2
1110.36,9215.9,9274.8,8407.8,9724.9,8246.9,7795.6
1111.69,9122.5,9277.7,8337.9,9683.7,8263.9,7795.5
1113.02,9187.4,9216.3,8398.4,9673.1,8296,7811
1114.35,9197.3,9326,8501.2,9711.1,8333.1,7814.4
1115.68,9243.3,9328.2,8403,9743.9,8323.7,7807.4
1117.01,9196.4,9275.3,8409.2,9857.4,8296.3,7819.6
1118.34,9239.7,9388.1,8420.1,9810.2,8296.9,7820.5
1119.67,9255.9,9296.3,8437.9,9738.5,8268.3,7828.1
1121,9233.6,9291,8462.2,9745.9,8274.5,7831.6
1122.33,9298.8,9288.3,8400.6,9732.5,8304.8,7842.5
1123.65,9246.9,9416.4,8468.9,9938.1,8276,7858.8
1124.98,9281.5,9361.6,8455.4,9833.4,8317.1,7874.4
1126.31,9291.5,9441.2,8545.2,9940.5,8295.4,7848.9
1127.64,9218.7,9413.8,8514.4,9785.8,8280.8,7860.4
1128.96,9419.4,9391,8469.5,9837.8,8282.1,7876.2
1130.29,9371.5,9469.7,8476.9,9874.6,8339,7853.6
1131.62,9367,9449.2,8506.4,9811.2,8286.3,7886.7
1132.94,9361.6,9480.7,8599.4,9779.3,8343.5,7878
1134.27,9361.8,9410.8,8553.8,9870.2,8308.2,7889.1
1135.59,9370.6,9504.6,8593.2,9880.1,8345.6,7898.3
1136.92,9358.8,9468.9,8567.1,9887.7,8348.2,7897.9
1138.24,9325.4,9425.4,8477.1,9925.7,8357,7866.9
1139.57,9374.4,9483.4,8520.9,9952.3,8345.5,7887.5
1140.89,9417.1,9369.7,8550.6,9905.1,8419.3,7897.3
1142.22,9536.1,9500.1,8534.7,9952.2,8366.1,7914.2
1143.54,9479.4,9552.8,8584.6,10069,8383,7945.1
1144.86,9392.8,9587.6,8587.8,10063.3,8303,7917.8
1146.18,9559.4,9555.4,8603.9,10027.7,8456.3,7924.3
1147.51,9543.5,9532.2,8580.7,9971.3,8335.1,7924.4
1148.83,9592.4,9643.9,8625.8,10101.8,8414.9,7967.3
1150.15,9471.2,9639.3,8627.6,10024.5,8366.5,7946
1151.47,9517.5,9584.3,8615.1,10137.1,8413.5,7940.3
1152.79,9637.2,9645,8634.2,10035.9,8376.1,7991.3
1154.11,9601.4,9546.8,8604.5,9964,8306.8,7938.1
1155.43,9586.2,9613.1,8606.4,10034.8,8359.9,7961.8
1156.75,9654.1,9650.8,8663,10188.1,8423.5,7988.6
1158.07,9621.5,9658.2,8703.5,10131.4,8404.5,7982.7
1159.39,9759.1,9658.2,8773.6,10134.8,8393.2,7981.5
1160.71,9706.9,9736.3,8723.8,10148.5,8417,7988.6
1162.03,9754.8,9618.2,8677.4,10197.9,8405.3,8001.5
1163.35,9863.3,9686.5,8735.9,10345.7,8398.5,8015.5
1164.67,9796,9832.8,8753.9,10274.4,8413.2,7998.8
1165.98,9854.5,9720.2,8736,10222.4,8419.5,8027.6
1167.3,9770.8,9741.1,8750.6,10327.2,8423.1,8009.3
1168.62,9798,9745.1,8717.1,10243.9,8473.4,8001.1
1169.93,9819.2,9879,8805,10338.6,8440.9,8023
1171.25,9908.3,9859.4,8819.6,10434.8,8463.6,8046.8
1172.57,9979.4,9924.5,8836.3,10485.9,8557.5,8036
1173.88,10004.6,9986.7,8842.2,10408.7,8461.9,8072.9
1175.2,10102.2,9994.8,8834.9,10483.2,8496.1,8053.3
1176.51,10040.9,10023.5,8893.2,10585.8,8530.5,8071
1177.83,10184.9,10077,8977.9,10508.7,8488.7,8073
1179.14,10180.4,10062.1,8895.6,10670.7,8604.6,8086.6
1180.46,10119.5,9995.5,8943.1,10534.1,8530.6,8092.4
1181.77,10249.7,10114.6,8981.7,10661.7,8540.2,8083.4
1183.08,10239.5,10168.6,8978.1,10777.2,8604.6,8104.6
1184.4,10358.4,10295.4,9076.8,10852.9,8622.9,8120.5
1185.71,10359.7,10229.8,9015.6,10788.1,8626,8116
1187.02,10415.9,10237.2,9037.2,10770.9,8628.9,8125.8
1188.33,10345.2,10283.4,9091.1,10846.1,8623.7,8152.8
1189.64,10497.4,10312,9153.2,10946.2,8693.5,8144.9
1190.96,10514.7,10239.6,9205.7,10925.7,8653.6,8171.4
1192.27,10519.2,10269.8,9188.7,11062.3,8634,8115.8
1193.58,10614.1,10460.4,9240,11059.7,8674.4,8182.5
1194.89,10563.4,10380.6,9298.3,11188,8649.9,8175.7
1196.2,10658.4,10470,9242.4,11289.2,8706.2,8176.7
1197.51,10731.1,10492.6,9331.8,11308.7,8689.9,8202.4
1198.82,10818.6,10506.7,9260.5,11407,8758.6,8182.9
1200.13,10771.7,10604.7,9386.2,11303.6,8754,8205.4
1201.44,10842.3,10616.6,9441.9,11449.1,8746.8,8212.5
1202.74,10864.6,10694.5,9398.8,11424.8,8788.2,8230.8
1204.05,10996.1,10684.7,9536.2,11523.9,8793.6,8272
1205.36,11034.9,10838.7,9513.5,11706.7,8793.2,8244
1206.67,11138.8,10757.3,9526.6,11762.9,8880.9,8242.5
1207.97,11099,10738.7,9598.7,11806,8910,8260.3
1209.28,11160.7,10878.7,9629.6,11692.7,8950.1,8246.8
1210.59,11249.4,10998.3,9618.7,11892.4,8945.9,8297.7
1211.89,11171.9,10972.6,9638.3,11769.4,8894.9,8304
1213.2,11257,10898.8,9642.2,11813.4,8888.8,8301.9
1214.51,11224,10885.7,9598.1,11708.7,8934.7,8299.5
1215.81,11283.5,10973.2,9643.1,11914.8,8888.4,8317.8
1217.12,11374.6,11009.5,9683.7,11864.1,8929.5,8335.2
1218.42,11524.3,11143.5,9803.4,12179.4,8956.1,8350.2
1219.73,11533.2,11233.8,9751.4,12161.8,8957.6,8366.1
1221.03,11502.4,11024.4,9678.9,11934.6,8983.5,8383.7
1222.33,11512.8,11136,9824.2,12126.7,8975.7,8377.6
1223.64,11556.7,11135.6,9862.2,12242,9015.8,8392.6
1224.94,11634.9,11079.9,9871.6,12166.2,8985.1,8394.3
1226.24,11529.3,11073.2,9814.6,12033.3,8966.4,8378
1227.54,11645.3,11029.7,9757.6,12043.9,8966.7,8378.2
1228.85,11730.5,11117.5,9817,12238.9,8979.3,8423.8
1230.15,11758.3,11143.5,9906.8,12103.1,8980.2,8403.7
1231.45,11713.9,11087.7,9850.1,12101.6,8986.5,8429
1232.75,11782.8,11059.5,9866.3,12096.1,8934.7,8429.3
1234.05,11661.3,11132.2,9816.5,11930.3,8954.7,8436.3
1235.35,11803.2,10994.9,9803.4,11965.8,8948.9,8410.9
1236.65,11830.6,11134.9,9898.5,12107.7,9011.9,8449.4
1237.95,11819.8,11057,9779.4,12114.8,8961.5,8430.4
1239.25,11838.8,11023.1,9816.1,12046.5,8999.2,8473.8
1240.55,11857,11154.2,9952,12097.6,8976.7,8466.5
1241.85,11886.8,11187.2,9921,12082.8,8971.2,8466.2
1243.15,12009.6,11211.9,9939.7,12156,9026.6,8487.4
1244.45,11970.8,11134.4,9944.9,12131.2,9012.8,8463.9
1245.74,11897.1,11081.2,9847.3,12123.1,8994.5,8438.4
1247.04,12050.1,11149.3,9950.4,12133.3,8993.7,8456.8
1248.34,12018.8,11231.1,9950.5,12176.7,9054.6,8488.5
1249.64,12104.7,11117.5,9999.4,12246.4,9014.2,8514.4
1250.93,12094.4,11185.4,9983.5,12120.5,9019.5,8510
1252.23,12113,11079,9864.5,12203.6,9022.7,8559.6
1253.52,12255,11274.2,10027.3,12085.8,9063.8,8530.4
1254.82,12197.5,11258.4,9965.7,12360.8,9037.7,8546.9
1256.12,12251.2,11203.1,10032.2,12184.1,9005.8,8527.6
1257.41,12384.2,11270.6,10055.1,12219.4,9106.1,8533.9
1258.71,12455.4,11281.6,10121.3,12352.3,9053.4,8564
1260,12461.6,11369.7,10077.1,12545.2,9130.8,8611.6
1261.29,12458,11386.6,10147.9,12541.9,9077.6,8574.6
1262.59,12465.1,11415.8,10129.5,12423.1,9125,8602.2
1263.88,12586.1,11419.8,10125.2,12485.5,9127.5,8624.9
1265.17,12689.1,11413.9,10112.3,12592.2,9166,8597.6
1266.47,12559.9,11465.4,10115.6,12514.4,9136.5,8638.5
1267.76,12762.1,11491.4,10178.2,12624.8,9151.4,8648.5
1269.05,12747.8,11544.8,10252.3,12714.2,9158.2,8644.3
1270.34,12792.2,11502.1,10243.1,12754.7,9164,8671.6
1271.64,12802.9,11495.2,10290.5,12888.2,9233.9,8669.8
1272.93,12898.7,11589,10321.9,12943.5,9255,8673.2
1274.22,13011.2,11719.6,10402.2,12885.9,9211.6,8683.2
1275.51,12931.8,11711.2,10430.1,12897.7,9233.5,8733
1276.8,13048.5,11770.2,10328.2,12954.5,9251.4,8713.2
1278.09,13048.1,11851.2,10414.4,13045.7,9237.1,8738.8
1279.38,13158,11706.6,10595.8,13051.3,9262.5,8736.9
1280.67,13210.1,11768.6,10428,13236,9340.8,8729.7
1281.96,13250.7,11874.9,10560.1,13246.6,9302,8742.9
1283.24,13258,11881.1,10525,13157.1,9336.6,8761.4
1284.53,13211.5,11873.5,10539.8,13081.9,9303.4,8777.7
1285.82,13220.4,11839.1,10499.9,13238.9,9364.7,8758.9
1287.11,13390.5,12001.6,10599.8,13303.6,9385.7,8793.1
1288.4,13490.9,11982.4,10617.5,13410.6,9390.4,8830
1289.68,13471.3,12044.5,10662.3,13513.9,9366.6,8796.1
1290.97,13523.8,12095.3,10701.4,13473.8,9418.2,8812.8
1292.26,13638.5,12172.1,10648.1,13583.3,9416.8,8849.9
1293.54,13561.1,12003.1,10685.7,13595.9,9400.5,8884.3
1294.83,13664.3,12238.7,10817.6,13636.5,9431.9,8912.3
1296.11,13691.2,12129.2,10789.2,13802.9,9407.3,8905.2
1297.4,13750.4,12168.7,10748.8,13629.8,9424.5,8897.8
1298.69,13801.8,12212.9,10806,13769.4,9511.3,8914
1299.97,13789.2,12287.8,10813.8,13780.1,9431.4,8934.3
1301.25,13795.4,12285.6,10821.8,13735.8,9436.9,8952.3
1302.54,13924.1,12265.3,10850.3,13783.8,9549.4,8951.2
1303.82,13883.8,12266.5,10840.7,13813.8,9454.9,8969
1305.11,14037.2,12345.4,10864.2,13902.1,9548.4,8974.4
1306.39,14117.3,12333.4,10825,14024.3,9506.2,8975
1307.67,14066.6,12408.8,11019.4,14045.3,9549,8996.5
1308.95,14187.6,12519.5,11083.8,14116.2,9581,9019.4
1310.24,14261.3,12497.6,10964,14137.4,9540.2,9045.1
1311.52,14231.1,12435.6,11017.3,14125.4,9564,9049.9
1312.8,14273.5,12551.2,11029.8,14233.7,9562.4,9047.8
1314.08,14388.6,12567.5,11114.8,14182.9,9556.4,9088.7
1315.36,14457.7,12596.2,11024.1,14276,9619.3,9117.8
1316.64,14536.2,12621.2,11085.8,14165.3,9618.6,9094.3
1317.92,14356.9,12530.6,11170.6,14308.9,9596.3,9140.8
1319.2,14611.2,12681.5,11152.3,14217.4,9649.9,9125
1320.48,14642.7,12736.7,11152.5,14473.6,9671.6,9136.8
1321.76,14699.7,12766.4,11088.8,14315.1,9664.1,9153.2
1323.04,14590.3,12713.7,11103.5,14283.2,9632.5,9170
1324.32,14561.9,12645.2,11170,14457.9,9679.3,9139.9
1325.6,14704.1,12819.1,11171.9,14491.9,9688.2,9193.8
1326.88,14752,12757.4,11132.4,14414.4,9684,9209.2
1328.15,14733.3,12775.1,11175.4,14406,9721,9190.2
1329.43,14794,12691.9,11104.7,14420.7,9706.1,9177.5
1330.71,14704.5,12636.7,11165.7,14357.8,9622.3,9203.4
1331.99,14746.1,12735.6,11157.3,14415.1,9644.9,9220.3
1333.26,14857.7,12859.7,11259.7,14470.3,9670.2,9250
1334.54,14844.9,12724,11188,14447.6,9597.7,9225.5
1335.81,14898.9,12751.5,11075.3,14404.2,9634.5,9237.6
1337.09,14892.2,12673.2,11150.5,14306.3,9669.2,9245.4
1338.37,14854.4,12794.5,11282.6,14474.7,9637,9210.6
1339.64,14870.3,12722.2,11112.7,14276.2,9671.2,9225.5
1340.92,14865.5,12783.4,11331.5,14390.8,9688.3,9240.5
1342.19,14888.1,12830.2,11291.7,14567.5,9651,9186.7
1343.46,14898,12751.1,11172.7,14485.9,9679.4,9232.2
1344.74,14778.6,12753.6,11159.6,14526,9596.4,9186.7
1346.01,14785.3,12720.6,11128.5,14360.1,9653.8,9201.4
1347.28,14738.3,12660.6,11117.9,14352.4,9724.6,9225.4
1348.56,14869.4,12801.6,11145.4,14317.8,9589.4,9243.9
1349.83,14907.1,12741.1,11158.9,14485.7,9709.5,9207
1351.1,14849.2,12834.3,11248.5,14439,9684.4,9206.7
1352.37,14822.2,12811.4,11141.8,14543.8,9619.8,9232.9
1353.65,14843.1,12741.9,11176.1,14439.6,9650.1,9182.9
1354.92,14845.3,12713.4,11160.5,14500,9620.2,9185.8
1356.19,14911.5,12918.8,11264.3,14550.6,9663.6,9212.3
1357.46,14745.4,12833.3,11308,14629.8,9712.8,9192.5
1358.73,14798.8,12830.8,11258.4,14432.7,9720.6,9219.2
1360,14813.7,12822.4,11296.5,14470.5,9681.6,9205.8
1361.27,14769.9,12688.6,11185.5,14302.3,9579.1,9146.3
1362.54,14782.1,12721.9,11242.1,14461.7,9622.9,9174.6
1363.81,14886.4,12853,11309.1,14449.4,9662.4,9187
1365.08,14875.2,12788.1,11265.1,14514.9,9685.9,9194
1366.35,14788.1,12841.4,11307.2,14514.2,9645,9189.3
1367.61,14733.8,12844,11281.5,14411.3,9652.4,9152.6
1368.88,14762.2,12968.9,11292.5,14519,9671.8,9158.6
1370.15,14714.3,12950.4,11370.1,14563.9,9697.3,9163.2
1371.42,14750,12827.4,11185.4,14434.6,9655.4,9153.1
1372.68,14709.1,12925.4,11262.7,14638.4,9682.4,9149
1373.95,14742.6,12930.5,11329.9,14486.5,9690.8,9145.9
1375.22,14805.9,12983.8,11394.9,14709.4,9678.8,9172.3
1376.48,14714.4,12868.1,11389,14701.5,9683.2,9109.5
1377.75,14728.2,13016.3,11380.8,14583.9,9669.3,9119.7
1379.02,14624.6,13116,11404,14667.1,9692.5,9124.9
1380.28,14740.2,13088.9,11357,14651.4,9746.5,9125.5
1381.55,14655.5,13050,11385.5,14714.5,9686.8,9143.6
1382.81,14585.4,13085,11407.9,14679.9,9695.5,9168.3
1384.08,14498.2,13122.2,11369.2,14838.8,9679.5,9105.8
1385.34,14535.9,13129.6,11476.2,14839.1,9721.1,9128.5
1386.6,14540.8,13152.2,11444.7,14755.4,9709.7,9100.8
1387.87,14509.2,13118.1,11343.9,14801.9,9750.8,9105.6
1389.13,14537.3,13090.9,11430.8,14729.6,9714.4,9068.5
1390.39,14499,13154.5,11503.8,14809.6,9695.9,9112.7
1391.66,14464.2,13251.1,11522.5,14904.7,9796.4,9074.7
1392.92,14491.3,13193.6,11534,14833.4,9717.4,9082.9
1394.18,14459.8,13263.3,11560.9,15000,9690.8,9079.1
1395.44,14401,13274.7,11608.3,14927.1,9736.5,9089.4
1396.7,14451.3,13442.4,11560.4,15134,9785.2,9059.7
1397.96,14409.6,13397.3,11679.6,15111,9749.2,9089.4
1399.23,14512.7,13333.7,11630.9,15063.8,9726.5,9076.8
1400.49,14457.2,13296.6,11705.5,15178.1,9741.1,9067
1401.75,14653,13548.3,11641.4,15140.6,9770.6,9067.5
1403.01,14475,13652.1,11742.3,15169.1,9773.7,9077.4
1404.27,14460.2,13567.7,11840.5,15306.9,9784.4,9062
1405.52,14524.9,13635.2,11831.4,15251.7,9803.5,9069.1
1406.78,14382.2,13653.7,11888.1,15455.7,9776.5,9067.8
1408.04,14453.5,13593.3,11988.1,15324.4,9889.5,9051.3
1409.3,14571.7,13714.3,11954.4,15592.1,9823.5,9066.3
1410.56,14551.1,13784.5,11992.9,15558.6,9850,9046.2
1411.82,14554.9,13846.9,11995.1,15697.7,9858.8,9072.9
1413.07,14668.1,13851.6,11937.4,15755.9,9909,9063.1
1414.33,14623.4,13889.7,12096.2,15860.4,9910.7,9077.6
1415.59,14601.9,13997.8,12066.3,15823.1,9948.5,9054.5
1416.85,14552.1,14046.8,12176.3,15790.2,9946.8,9063.4
1418.1,14444.6,14015.7,12143.5,15742.1,9919.5,9089.6
1419.36,14435.5,13903.8,12107.2,15727.1,9907.3,9041.1
1420.61,14574,13995.1,12159.1,15920.8,9905.4,9017.7
1421.87,14629.2,14076.1,12264.6,15972.7,9990.3,9087.1
1423.12,14794.4,14125.1,12182.8,16034.4,10021,9044.1
1424.38,14605.9,14171.5,12290.4,16060,9987.9,9062.5
1425.63,14610.3,14113,12231.4,16019,9999.2,9073.7
1426.89,14541.6,14207.1,12247.3,16012.2,10013.4,9044.2
1428.14,14558,14158,12243.9,15946.3,9973.6,9051.1
1429.4,14563.5,14193.9,12207.5,16042.1,10026.7,9053.1
1430.65,14603.9,14230.8,12313,16113.7,10005.2,9065.3
1431.9,14693.3,14271.3,12306.6,16138.8,10017.3,9042.5
1433.15,14719.6,14242.2,12396.2,16192.5,10031.9,9046
1434.41,14559.4,14230.6,12294.4,16003.1,10018.3,9060.6
1435.66,14549.2,14273.6,12340.4,16199.6,10025.6,9056.7
1436.91,14517.4,14320.7,12372,16184.9,10004.2,9059.1
1438.16,14614.2,14347.4,12488.7,16296.5,9978.1,9060
1439.41,14514.4,14396.2,12395.7,16310.8,9985.1,9038.9
1440.67,14549,14343.9,12398.2,16245,10010.4,9028.1
1441.92,14661.3,14294.2,12479.7,16295.4,10060,9047.7
1443.17,14619.4,14480.6,12561.8,16232.9,10033,9038.7
1444.42,14517.8,14292.3,12428.2,16276.2,10025.4,9037.9
1445.67,14470.6,14313.9,12539.7,16225,10032.6,9052.7
1446.92,14466.7,14362.3,12495.2,16096.1,10027.4,9077.8
1448.17,14529.9,14341.9,12469,16161.5,9982.8,9041.4
1449.41,14508.2,14431.9,12556,16256,10038.5,9054.2
1450.66,14550.3,14352.7,12486.2,16169.4,10046.8,9012
1451.91,14438.5,14342.3,12391.9,16169.5,10049.9,9029
1453.16,14447.2,14374.7,12541.5,16300.1,10028.7,9036.6
1454.41,14497.5,14446.1,12460.2,16324.2,10006.1,9007.1
1455.65,14349.7,14300.9,12409.8,16222.7,9974.1,9039.2
1456.9,14424.2,14431,12481.2,16117.8,10100.3,9042.3
1458.15,14503.9,14440.6,12488.8,16325.8,10018.5,9045.3
1459.4,14472.8,14283.2,12499.8,16176.3,10051.5,9034.9
1460.64,14436.5,14425.7,12481.6,16215,10008.9,9040
1461.89,14426.8,14524.9,12606.6,16220.2,9992.9,9051.3
1463.13,14356,14446.8,12532.3,16263.3,10078.2,9050.4
1464.38,14389.9,14345.4,12535.2,16165.9,9963.7,9013.4
1465.62,14480.5,14487,12526.1,16391.2,10023,9065.1
1466.87,14340.6,14427.3,12580.5,16362.8,10061.9,9066.4
1468.11,14416.6,14415.3,12525.8,16336,10067.3,9049.7
1469.36,14400.3,14427,12545.9,16237.8,10024.9,9046.2
1470.6,14366.5,14444.1,12569.1,16410.3,10036.5,9054.3
1471.85,14558.5,14491,12629.8,16259.8,10031.3,9079.6
1473.09,14394.6,14483.4,12540.3,16339.8,10027.7,9062.1
1474.33,14489.5,14468.4,12586.8,16368,10057,9039.8
1475.57,14486.9,14522.9,12583.8,16302.6,9987.9,9066.8
1476.82,14441.1,14420.1,12626.8,16285.7,10062.9,9059
1478.06,14512.1,14485.1,12601.1,16439.6,10024.1,9084.1
1479.3,14405.8,14501.7,12651.5,16330.3,10028.2,9079.4
1480.54,14365.7,14451.3,12552,16251.1,10061.4,9055.3
1481.78,14262.1,14367.8,12555.4,16389.9,9979.2,9075.4
1483.03,14412.8,14539.6,12686.5,16428.7,10063.6,9068.7
1484.27,14500.6,14470.8,12697.3,16429.7,10042.3,9076.6
1485.51,14485.2,14554.9,12571.8,16514,9981.6,9071.7
1486.75,14464.5,14509.5,12621.6,16390.4,10087.9,9067.5
1487.99,14382.1,14576.5,12666.1,16410,10049.5,9049.1
1489.23,14353.1,14611.3,12712.6,16455.9,10024.8,9023.8
1490.47,14382.8,14576,12721.2,16393.2,10016.7,9056.3
1491.7,14343.6,14609.5,12656.4,16355.7,10045.3,9078.6
1492.94,14495.8,14603.8,12763.7,16497.7,10034.6,9092.6
1494.18,14413.5,14585.1,12744.4,16628.3,10073.7,9091.1
1495.42,14455.2,14614.7,12721,16615.5,10000.7,9108.1
1496.66,14533.5,14742.1,12853.7,16744.6,10095.7,9110.3
1497.9,14546.4,14824.8,12858.1,16813.3,10057.3,9138.4
1499.13,14035.4,14173.4,12373.7,15885.4,9804.7,9074.4
1500.37,13605.9,13638.5,11890.7,15340.8,9661.4,8982.2
1501.61,13594.1,13741.4,11992.9,15266.4,9776.3,8988.6
1502.84,14269.9,14147.8,12468.5,16015.9,9957.9,9068.5
1504.08,14754,15036.4,12936.7,16834,10076.2,9133.3
1505.32,14646.4,14847.4,12876.1,16889.2,10083.7,9115.1
1506.55,14566.5,14796.3,12886.6,16792,10100.9,9094.7
1507.79,14667.7,14773.7,12918.1,16831.6,10115.1,9117.2
1509.02,14596.9,14943.2,12967.4,16863,10129.3,9121.8
1510.26,14695.6,14961.8,12965.1,16835.2,10150.2,9136.9
1511.49,14799.5,14892.9,13031.8,16962.7,10200,9141.1
1512.73,14804.1,15018.8,13091.6,16989.6,10165.7,9131.9
1513.96,14722.7,15005.6,13089,17114.8,10168.7,9158.8
1515.19,14819.2,15029.8,13094.3,17150,10190.5,9121.7
1515.81,14760.7,14938.9,13100,17127,10089.5,9196.2