File: Raman_conodonts/How many points unique.csv
10 points;20 points;30 points;40 points;50 points;60 points;70 points;80 points;90 points;100 points;125 points;150 points;175 points;200 points;400 points;600 points;800 points;1000 points;1500 points
41.5249;16.7699;49.2916;39.993;47.4794;41.7749;19.2288;47.6796;47.1983;41.1737;41.626;38.756;48.3377;37.6256;20.9636;15.4135;41.1044;;
39.0106;25.2883;41.5644;35.6441;38.212;26.4293;38.4825;51.6295;45.0821;48.46;44.159;40.3603;39.9334;43.0065;39.8141;22.9708;45.7311;;
22.4507;38.1025;29.1413;21.4855;11.7991;30.4764;35.6192;40.7244;12.6017;41.7845;44.9971;44.4304;24.0979;37.2015;36.0155;20.4436;23.9023;;
34.2857;42.6749;59.1009;46.5818;30.3056;27.6469;33.5672;33.3688;42.7204;46.1266;27.5792;46.8757;53.1403;15.5928;36.7005;15.736;33.3846;;
46.0408;38.5533;14.986;9.38303;39.8013;43.049;26.1064;21.7107;47.8238;41.6822;37.0157;13.1127;33.8893;58.886;27.6126;7.95553;27.4308;;
34.2135;47.0354;17.2265;54.7482;41.4729;11.2863;44.6004;41.007;44.8438;40.8641;32.0609;30.4248;34.2615;35.2167;41.042;41.2702;43.5972;;
41.7785;34.352;40.8652;42.9544;39.9897;32.5368;31.2875;44.8987;32.1873;31.6547;15.9261;33.8796;41.5272;38.5746;44.9124;15.5054;19.1417;;
23.8537;34.4572;34.4663;39.6238;21.1844;48.1039;26.5583;25.747;31.8893;26.6129;54.3783;46.4221;33.0815;44.9315;92.2428;21.4692;25.7698;;
25.9766;47.1374;35.8452;31.6174;47.7151;31.4879;42.9306;42.8941;31.7619;38.2483;48.2129;42.9241;46.441;31.1092;15.1224;50.857;40.6371;;
45.7579;47.4547;43.9588;7.90655;41.3135;43.3229;46.3299;40.7688;22.3923;42.4363;25.5024;47.3085;20.32;33.0815;17.5839;25.4694;41.6564;;
;36.6901;46.7141;39.5677;41.3589;46.3032;41.2262;40.9338;21.2596;41.7168;16.9725;16.6261;19.8758;47.4983;45.1499;43.5666;46.8553;;
;15.4576;47.1614;49.6597;47.6251;43.0797;29.7936;41.5388;45.3678;41.4139;22.7628;26.0222;48.7886;22.2366;35.9753;20.0538;26.3386;;
;38.776;46.0885;38.4894;56.2062;28.5903;49.6598;47.0491;55.9262;44.5201;63.3951;20.1956;26.3024;40.9097;45.3299;34.922;39.5644;;
;23.592;41.3855;45.5725;37.3829;41.7517;47.8432;43.1519;25.719;48.1403;23.1742;25.6487;22.6365;46.3974;20.7683;41.3276;21.398;;
;44.7836;41.4833;25.231;20.9065;45.0331;36.0214;47.0649;27.3288;35.4633;15.8082;48.0883;40.1207;39.8026;40.6699;41.952;40.8084;;
;23.9747;48.0564;48.3563;48.9261;43.7967;24.6894;49.9555;27.401;18.6023;38.6669;19.2638;24.6341;26.5748;13.2413;49.1855;20.8034;;
;22.0586;26.5558;40.4016;29.3265;41.59;20.4832;45.2566;39.458;23.7082;31.8264;40.1779;29.4422;48.1965;24.7483;42.399;18.541;;
;25.6328;30.6859;40.0009;10.9487;9.29523;28.3507;25.4307;31.7866;31.0241;11.4413;34.1714;47.8938;24.0062;41.7405;39.2698;46.809;;
;8.4451;30.3772;29.9543;33.8566;23.7934;27.3413;24.6921;21.8857;25.0689;24.6413;43.1262;29.1796;38.8068;19.7507;17.4716;40.1004;;
;44.9559;45.9633;46.9859;48.2783;24.0867;35.4979;48.695;45.1814;50.5347;41.8298;20.8012;36.2059;39.0095;40.6999;37.7722;40.0729;;
;;23.9965;39.3156;45.9394;43.444;25.8883;22.4124;42.5148;42.494;32.5531;21.922;40.407;45.2498;21.0964;46.0248;24.1937;;
;;32.9948;27.8754;40.6948;42.3036;26.691;47.5774;40.6215;27.0901;45.5553;19.7499;49.268;44.9012;43.3954;42.1242;18.0455;;
;;22.6932;54.2864;31.3751;40.3106;27.791;42.8082;15.0583;41.0418;42.9777;26.0377;15.4209;43.5219;44.0158;37.2308;8.62821;;
;;34.1339;44.1315;47.9589;46.3497;36.3391;48.8152;19.5729;45.1213;21.3894;19.0203;49.8991;39.844;19.7306;41.1221;41.5412;;
;;20.6835;27.8398;27.8551;27.8149;23.8588;48.3651;47.459;27.3778;44.5042;44.2651;37.4919;17.6382;17.1402;41.583;23.8374;;
;;40.6487;19.2791;49.2882;13.0113;29.2175;45.9206;43.5527;20.9632;33.7394;41.1746;47.7693;24.0571;37.1017;34.0075;41.6226;;
;;35.7237;16.123;19.2222;40.9986;41.29;47.8909;26.9785;60.1577;46.0642;28.1496;20.3365;39.0883;35.87;11.209;21.1029;;
;;45.3;45.8049;33.4841;42.4494;33.78443;8.70098;29.6306;45.3551;17.1612;23.5865;41.6489;22.3335;24.7648;45.0667;37.0266;;
;;33.1396;32.6385;28.7246;10.0608;29.9488;39.7525;14.5868;19.6478;47.2714;28.4116;41.5236;25.8326;28.2238;40.6482;37.4348;;
;;42.4554;47.8098;39.1579;38.7144;33.9857;42.1162;41.0634;41.152;47.015;42.5135;45.7228;48.9762;12.7706;46.5619;41.817;;
;;;18.1874;25.3032;44.3882;41.9414;25.7238;17.7235;45.019;31.7887;50.0571;38.9959;39.6079;32.4992;35.6696;46.1052;;
;;;22.8305;16.253;51.5845;48.991;52.7891;38.1769;20.8431;29.1951;39.3727;23.8466;23.9796;16.1062;40.3534;38.8884;;
;;;43.9317;40.6923;29.7541;43.1199;33.9545;26.4288;42.4197;57.56;49.1168;40.6934;31.6107;25.7184;34.4522;17.1314;;
;;;30.1865;17.8567;46.441;18.5922;41.0044;21.7489;33.8366;23.6004;23.3812;53.6901;41.741;44.1938;40.9057;26.2874;;
;;;47.6519;24.8863;21.0789;41.602;44.8339;41.974;43.2127;38.806;45.5065;26.5987;40.3784;38.1342;10.5084;21.4546;;
;;;46.9967;44.4931;42.9292;51.9572;44.6845;26.7036;24.6272;41.8918;48.6065;35.5216;12.0299;28.6422;41.5826;20.0229;;
;;;21.8101;28.065;31.0399;42.3521;10.712;45.6604;43.2191;48.1809;17.2904;29.4355;28.4442;15.414;41.9351;20.9243;;
;;;20.3858;42.902;47.9363;46.934;17.9909;53.9739;45.4447;46.7389;14.0583;32.2014;60.6873;25.7266;45.8174;39.0294;;
;;;15.3901;24.6542;26.2218;41.6222;39.5663;15.3615;39.3828;18.8493;8.05367;42.107;44.0333;43.8342;25.3311;32.5029;;
;;;46.4178;22.8356;47.4204;41.9585;44.7773;56.4399;16.8601;25.3675;17.132;35.6192;25.937;33.044;42.5539;45.0115;;
;;;;41.4473;29.4422;34.237;28.3749;43.0237;32.8059;43.2274;23.3509;27.0332;42.7204;38.9856;33.8524;38.7449;;
;;;;40.4814;9.31348;26.2778;22.098;51.6649;21.4265;47.0318;26.0102;47.9052;29.9568;21.5423;41.993;33.4148;;
;;;;21.5613;22.044;35.606;26.6856;19.6748;42.8401;18.0076;25.8589;44.6004;10.0676;32.5788;24.9298;22.2407;;
;;;;23.2934;17.7598;11.598;18.9624;41.5482;41.7145;44.5829;19.72048;31.2875;32.1873;21.8249;25.3167;51.6632;;
;;;;41.0543;46.8463;36.2001;40.19;40.7633;40.7344;35.119;42.4777;26.3395;39.7408;38.9601;41.8246;39.3407;;
;;;;39.056;49.268;48.6124;37.1748;34.9316;48.4815;21.3316;25.3583;20.8879;66.6201;39.2137;34.5566;39.7496;;
;;;;44.1438;40.5666;42.1929;31.6596;23.4825;32.3958;22.9518;41.4778;42.9306;13.2768;44.6981;60.8369;11.3806;;
;;;;44.12;49.8991;34.7431;45.5495;44.8111;38.7825;38.9105;26.6524;11.0238;37.9389;43.2545;52.981;41.7633;;
;;;;38.9951;47.3894;46.9563;44.3119;45.3891;37.2744;29.4201;47.0457;41.2262;44.2677;27.5235;20.6803;44.9123;;
;;;;16.9279;47.7693;49.0894;29.7417;45.2619;46.025;43.2332;41.5112;22.0563;37.5433;40.0405;28.9328;41.438;;
;;;;;33.4658;37.0848;21.4134;72.0526;30.0849;48.0039;40.8858;41.2548;30.7355;22.0125;17.2082;27.3126;;
;;;;;21.2045;46.0436;22.1282;28.0435;65.0291;23.7978;45.1149;43.5501;25.719;42.6015;26.9027;49.3482;;
;;;;;46.2829;30.4373;43.0065;43.721;29.5594;28.3772;23.9632;36.0214;27.3288;8.9159;40.441;37.055;;
;;;;;36.0513;54.3884;15.5928;38.689;36.7005;45.5376;34.0401;10.1841;26.5067;40.4653;42.086;41.5604;;
;;;;;43.2341;42.682;58.886;23.4961;25.8455;17.9565;41.469;51.3996;43.299;23.9723;44.4434;25.858;;
;;;;;42.3243;36.0319;35.2167;42.6432;10.5085;24.9534;47.5821;25.1449;44.6411;43.4652;8.29242;25.6042;;
;;;;;39.9735;45.9554;38.5746;47.1408;92.2428;16.5969;42.6892;20.4225;41.3244;34.9574;37.4937;41.8643;;
;;;;;26.8224;50.4117;44.6141;20.7939;34.53;24.55;39.6788;38.1255;45.1814;43.2428;12.5281;44.2016;;
;;;;;40.5363;43.1789;36.3888;33.3107;42.1151;23.4253;44.0254;45.9216;27.2926;26.4701;40.595;38.7496;;
;;;;;29.4355;40.0904;48.0307;57.4864;8.02385;26.3135;30.2765;47.0134;25.7832;42.2071;46.8915;38.2188;;
;;;;;;47.3524;47.4983;40.2667;45.3299;49.8074;35.0296;39.1011;49.5174;40.7791;47.6481;44.6218;;
;;;;;;41.382;23.7484;8.31823;20.7683;28.0866;25.7815;40.5958;26.5416;37.055;21.9541;48.5921;;
;;;;;;48.0618;26.7289;28.8668;48.752;43.9885;26.2675;26.691;15.0583;41.626;25.2377;39.0923;;
;;;;;;26.408;33.087;39.053;25.5638;45.0541;43.575;45.5085;30.5517;44.159;46.0108;39.694;;
;;;;;;14.569;39.0095;26.2952;22.34;41.4854;44.2582;30.9041;40.6113;14.5459;41.6821;32.9958;;
;;;;;;25.6092;45.2498;48.6985;26.7124;41.3295;35.9679;41.2256;31.192;11.903;48.0947;18.2179;;
;;;;;;18.9379;42.7858;40.9453;11.8716;26.2833;42.9536;44.001;44.9618;29.9531;35.1203;33.4259;;
;;;;;;27.0877;35.0691;30.1664;34.5653;40.8275;41.6202;22.2398;17.7968;32.6979;39.8145;18.5601;;
;;;;;;43.2206;17.2569;31.2415;26.5558;44.1541;15.4114;32.7759;47.0348;38.9334;65.9216;44.6085;;
;;;;;;40.8522;52.9651;46.1792;44.0158;40.1758;49.6991;47.4499;43.4714;43.9656;39.8507;45.5207;;
;;;;;;;45.4528;42.2646;36.8161;27.2039;34.1815;27.6382;39.0659;54.3783;37.9902;32.5593;;
;;;;;;;22.3335;54.028;43.0076;20.2841;57.4238;19.2349;14.5868;25.8218;15.6823;28.1055;;
;;;;;;;43.9265;47.1245;41.0234;42.1387;24.7059;18.1028;28.8967;25.5024;24.7765;37.4077;;
;;;;;;;45.0413;21.649;24.7648;38.727;27.828;49.3632;17.7235;42.9615;28.3182;17.1569;;
;;;;;;;23.9796;40.9264;41.5587;45.7204;36.357;40.9309;44.3133;24.5647;45.9399;44.5818;;
;;;;;;;36.6202;28.0325;32.4992;19.9828;41.6744;43.1199;26.4288;27.6678;18.0498;40.8255;;
;;;;;;;48.4392;41.1631;25.7184;40.7596;11.6586;31.9519;43.6312;48.8609;26.084;28.5303;;
;;;;;;;40.3784;36.9288;42.1306;37.8579;42.2728;15.7858;10.5542;15.8082;41.619;40.6405;;
;;;;;;;47.5721;19.7961;24.5519;32.5734;9.54097;36.9471;38.3775;27.9867;46.6423;19.0769;;
;;;;;;;49.1517;27.1584;21.2617;36.4537;8.43829;33.1102;45.6604;40.8583;33.6111;36.2048;;
;;;;;;;;28.1463;25.7266;38.3686;18.4802;27.7462;25.3512;14.5793;17.2275;40.2873;;
;;;;;;;;50.8667;23.2557;42.4459;25.7514;30.0293;29.8423;11.4413;49.5775;43.6697;;
;;;;;;;;26.4609;40.972;21.656;36.736;41.9585;39.3035;39.7621;8.62904;40.0395;;
;;;;;;;;26.8586;44.7147;40.9174;48.9232;29.2292;42.3616;41.8298;22.9455;22.3281;;
;;;;;;;;47.5211;46.3376;39.8936;43.6107;22.8192;34.151;26.7132;24.5582;17.6295;;
;;;;;;;;48.9148;47.8179;24.4242;44.9838;26.2778;30.1656;44.2177;50.5325;29.6253;;
;;;;;;;;46.7203;21.8249;31.5836;22.2344;47.22023;43.4057;42.9189;39.3609;20.4336;;
;;;;;;;;25.575;26.9509;41.8065;42.9705;41.0484;47.241;33.9025;43.891;45.2935;;
;;;;;;;;28.0521;36.3447;33.2982;49.6491;33.6907;13.3556;8.77062;46.8525;42.4484;;
;;;;;;;;45.4078;25.0911;49.7157;10.5856;30.5736;45.1129;39.2757;19.868;29.7341;;
;;;;;;;;;18.028;33.0664;39.4132;40.9291;43.612;21.3894;43.0952;45.5666;;
;;;;;;;;;42.48;40.5164;46.2116;41.5134;23.4825;43.1718;18.2615;23.2715;;
;;;;;;;;;17.9789;49.5736;30.3925;19.28;22.1515;44.5042;46.3176;31.2249;;
;;;;;;;;;8.9159;26.4748;29.5906;34.7678;45.3891;41.0954;48.2612;19.0455;;
;;;;;;;;;38.6634;40.818;21.5798;37.0848;20.2906;42.0212;32.5453;42.48;;
;;;;;;;;;39.3767;32.7147;23.471;43.7645;16.0745;44.3219;40.8194;18.3937;;
;;;;;;;;;48.7338;26.8101;33.3178;38.2564;32.2857;8.18607;44.0229;21.8135;;
;;;;;;;;;21.3504;42.1101;30.7573;45.6113;42.6873;17.1612;41.4099;34.7714;;
;;;;;;;;;26.9051;33.7611;41.0222;42.682;92.2599;41.2559;15.8174;16.1959;;
;;;;;;;;;25.1058;19.8846;41.8964;33.7611;42.8365;40.801;24.7277;34.8918;;
;;;;;;;;;;21.2422;23.6436;36.0319;26.4222;23.5664;40.0979;43.8272;;
;;;;;;;;;;45.9979;47.4371;42.3319;43.8411;47.7589;92.2417;30.5629;;
;;;;;;;;;;45.0449;42.0385;29.3201;43.2;41.7529;41.9787;48.2678;;
;;;;;;;;;;40.1737;14.0897;18.7171;20.7939;46.2478;21.2076;41.008;;
;;;;;;;;;;28.2714;44.1898;40.0904;47.4882;57.56;26.056;36.9755;;
;;;;;;;;;;21.9968;34.3305;29.5946;57.4864;43.73;42.51;26.2225;;
;;;;;;;;;;40.2029;19.7258;42.8861;19.5708;44.9594;42.5518;33.5165;;
;;;;;;;;;;31.9082;24.1856;46.8451;40.2667;41.0138;40.7902;17.8703;;
;;;;;;;;;;46.3132;41.6034;43.9155;54.2313;22.3944;30.6146;45.5405;;
;;;;;;;;;;16.5853;46.4581;40.4935;19.3283;8.4736;43.4549;16.6781;;
;;;;;;;;;;18.4598;44.0675;46.376;39.053;48.1809;10.2104;24.5374;;
;;;;;;;;;;27.4658;45.0916;21.535;43.9521;21.5976;38.2068;41.8357;;
;;;;;;;;;;48.4103;43.167;22.3865;40.2066;22.835;42.5666;39.9297;;
;;;;;;;;;;55.0481;12.6886;57.8164;46.2257;29.7173;47.1134;20.4832;;
;;;;;;;;;;48.3008;27.2982;27.0877;38.3473;21.4532;23.4218;29.9085;;
;;;;;;;;;;18.2519;22.2549;49.2019;31.396;41.7056;40.6984;40.6103;;
;;;;;;;;;;20.8133;47.0704;26.8008;27.8033;44.0847;36.7224;36.4621;;
;;;;;;;;;;25.6994;20.9842;18.9463;43.6485;42.8144;50.1101;42.7498;;
;;;;;;;;;;38.7073;48.9762;41.5378;15.9612;25.9375;23.1171;21.4107;;
;;;;;;;;;;41.6647;54.0196;40.7244;31.2415;30.1376;15.6589;22.4907;;
;;;;;;;;;;46.8902;47.3788;28.4881;48.7417;15.2977;19.7794;19.4763;;
;;;;;;;;;;16.3496;45.3534;25.0953;42.2646;35.7679;39.9302;20.5009;;
;;;;;;;;;;92.2778;25.8731;42.2112;15.2731;19.3699;35.6375;46.655;;
;;;;;;;;;;43.7789;47.234;45.9303;47.1245;41.156;25.3419;48.4062;;
;;;;;;;;;;32.5797;26.6426;18.2013;45.448;24.7502;10.4491;7.61521;;
;;;;;;;;;;;47.8283;11.2589;17.0022;37.5221;16.3865;44.8844;;
;;;;;;;;;;;18.8472;46.8669;34.3415;33.6662;41.4574;40.1473;;
;;;;;;;;;;;9.72775;42.2078;40.0743;28.3772;35.0679;25.8097;;
;;;;;;;;;;;16.1748;26.2769;26.534;45.5376;46.9333;45.0029;;
;;;;;;;;;;;29.7149;48.0214;21.0126;32.2742;41.2227;41.0044;;
;;;;;;;;;;;40.4631;18.4097;20.4737;35.767;39.6288;21.3821;;
;;;;;;;;;;;38.078;43.3434;22.6697;24.9534;24.2381;51.4659;;
;;;;;;;;;;;46.4114;49.9555;23.1352;46.5435;49.8109;26.4014;;
;;;;;;;;;;;40.4381;45.2566;49.3623;46.4926;39.8552;58.4531;;
;;;;;;;;;;;47.7749;41.2632;49.1136;24.55;24.9294;44.9411;;
;;;;;;;;;;;60.0377;57.2927;43.5991;32.1755;8.96186;44.09;;
;;;;;;;;;;;25.4344;48.695;26.4609;34.8019;28.7204;32.0105;;
;;;;;;;;;;;50.107;44.907;26.8586;26.3135;43.5614;27.1059;;
;;;;;;;;;;;40.2373;37.2913;39.4218;51.9509;45.1586;53.4905;;
;;;;;;;;;;;23.7934;48.298;43.1766;28.0866;8.49393;17.8168;;
;;;;;;;;;;;24.0867;41.2318;22.9278;29.0401;26.2433;39.1349;;
;;;;;;;;;;;49.8659;43.6428;30.2232;52.7136;40.4582;47.2587;;
;;;;;;;;;;;51.4023;19.2037;46.5158;30.8996;18.8925;30.7773;;
;;;;;;;;;;;42.3036;41.6774;42.8516;41.3295;39.1187;46.1266;;
;;;;;;;;;;;62.2913;32.0094;24.7932;26.6468;12.0417;41.0592;;
;;;;;;;;;;;39.0133;8.70098;40.0746;50.1334;38.9128;39.3571;;
;;;;;;;;;;;29.781;37.3919;48.46;40.3932;41.6487;41.1817;;
;;;;;;;;;;;45.9448;42.1162;44.7876;46.1597;22.655;17.3986;;
;;;;;;;;;;;36.1647;49.6713;25.9008;28.4762;46.1611;39.5102;;
;;;;;;;;;;;35.2933;43.4061;40.6722;28.2739;46.7978;38.0674;;
;;;;;;;;;;;;51.9872;27.1761;48.0621;29.9075;37.2384;;
;;;;;;;;;;;;22.4876;31.6547;20.2841;21.7631;47.3789;;
;;;;;;;;;;;;19.0055;31.8748;16.1426;38.6246;34.047;;
;;;;;;;;;;;;52.5129;43.5591;32.2414;46.0541;52.1212;;
;;;;;;;;;;;;9.4657;44.3617;32.8887;39.6885;43.8836;;
;;;;;;;;;;;;47.5144;20.6822;23.0285;25.6528;38.0329;;
;;;;;;;;;;;;48.8532;41.6317;41.6378;31.9458;54.3273;;
;;;;;;;;;;;;36.3687;17.2348;47.7281;9.16552;15.6147;;
;;;;;;;;;;;;18.0491;44.5201;46.0358;39.2806;31.2112;;
;;;;;;;;;;;;45.223;47.8262;48.0395;43.44;26.3115;;
;;;;;;;;;;;;35.527;47.2862;46.446;12.9536;47.1494;;
;;;;;;;;;;;;12.6863;40.3812;20.0499;39.3939;43.2676;;
;;;;;;;;;;;;49.4634;47.7906;43.4669;47.1149;48.8914;;
;;;;;;;;;;;;42.5981;31.0241;40.8115;38.6283;35.5392;;
;;;;;;;;;;;;46.182;25.0689;20.6934;38.2652;18.429;;
;;;;;;;;;;;;52.6534;41.4696;32.7768;20.8435;22.3289;;
;;;;;;;;;;;;20.2854;39.9406;21.0799;34.4364;42.2427;;
;;;;;;;;;;;;18.7811;27.0901;10.8727;50.0631;57.6414;;
;;;;;;;;;;;;37.1748;29.9418;46.4464;18.4914;25.5401;;
;;;;;;;;;;;;31.6596;22.2285;27.6698;42.9314;32.892;;
;;;;;;;;;;;;55.8875;42.6321;21.3958;23.8089;44.9885;;
;;;;;;;;;;;;44.3119;33.1105;27.6182;47.3812;33.3716;;
;;;;;;;;;;;;41.4352;49.9973;20.7061;12.3909;39.5603;;
;;;;;;;;;;;;21.4134;46.2998;19.2311;42.586;41.0685;;
;;;;;;;;;;;;25.2579;39.2487;37.5514;32.2592;38.4051;;
;;;;;;;;;;;;;45.6207;21.8953;47.3033;40.6975;;
;;;;;;;;;;;;;31.4964;50.0169;34.3128;35.4632;;
;;;;;;;;;;;;;24.1124;10.3149;40.6462;65.8813;;
;;;;;;;;;;;;;45.019;30.4565;37.8657;27.5842;;
;;;;;;;;;;;;;43.1384;26.4748;36.3171;46.5703;;
;;;;;;;;;;;;;26.1145;26.7563;27.5239;41.3307;;
;;;;;;;;;;;;;45.5197;38.4173;52.6016;41.885;;
;;;;;;;;;;;;;33.8366;45.4809;28.2551;30.3239;;
;;;;;;;;;;;;;24.6768;43.2275;38.798;29.8657;;
;;;;;;;;;;;;;42.0062;33.7611;24.6964;52.5303;;
;;;;;;;;;;;;;21.2222;45.1552;16.8947;53.5304;;
;;;;;;;;;;;;;26.5284;40.0891;22.3239;33.8756;;
;;;;;;;;;;;;;38.388;45.9979;20.4813;47.5484;;
;;;;;;;;;;;;;35.2769;40.6659;42.5956;47.2345;;
;;;;;;;;;;;;;45.0039;27.5901;11.783;51.8767;;
;;;;;;;;;;;;;50.1405;41.8302;44.3981;20.309;;
;;;;;;;;;;;;;41.3463;21.9968;16.8386;42.2363;;
;;;;;;;;;;;;;41.3566;44.8779;46.8598;27.2193;;
;;;;;;;;;;;;;55.1522;25.5823;38.9993;22.903;;
;;;;;;;;;;;;;17.8228;27.6581;45.1857;21.0352;;
;;;;;;;;;;;;;46.0235;45.0791;28.2316;18.6677;;
;;;;;;;;;;;;;40.971;18.4598;31.2401;50.3341;;
;;;;;;;;;;;;;40.8767;41.4643;25.4125;26.7706;;
;;;;;;;;;;;;;33.2562;25.8329;26.1395;15.541;;
;;;;;;;;;;;;;34.9338;43.3973;21.2412;46.0489;;
;;;;;;;;;;;;;;25.8639;51.1905;11.0051;;
;;;;;;;;;;;;;;49.6048;37.6743;16.4598;;
;;;;;;;;;;;;;;35.598;43.1786;17.3082;;
;;;;;;;;;;;;;;31.6749;34.2985;25.6616;;
;;;;;;;;;;;;;;30.7615;46.4798;24.8298;;
;;;;;;;;;;;;;;32.944;26.6886;26.1082;;
;;;;;;;;;;;;;;41.9053;49.1096;8.97973;;
;;;;;;;;;;;;;;40.5884;50.2898;39.3661;;
;;;;;;;;;;;;;;18.8308;40.0661;40.9878;;
;;;;;;;;;;;;;;25.7772;42.2311;20.0185;;
;;;;;;;;;;;;;;16.3496;26.8908;42.1738;;
;;;;;;;;;;;;;;30.4729;51.4483;44.291;;
;;;;;;;;;;;;;;17.6353;41.4908;38.9035;;
;;;;;;;;;;;;;;40.7582;51.532;28.6955;;
;;;;;;;;;;;;;;32.5797;22.2175;22.9123;;
;;;;;;;;;;;;;;44.3883;19.5871;14.86;;
;;;;;;;;;;;;;;41.3962;40.32;23.0905;;
;;;;;;;;;;;;;;39.3241;20.0772;53.7403;;
;;;;;;;;;;;;;;53.9202;42.7029;41.043;;
;;;;;;;;;;;;;;7.66626;18.9543;27.8211;;
;;;;;;;;;;;;;;39.7993;39.0683;35.1115;;
;;;;;;;;;;;;;;33.8796;30.4657;42.6165;;
;;;;;;;;;;;;;;9.16552;36.0322;44.9565;;
;;;;;;;;;;;;;;48.9789;24.1373;55.4226;;
;;;;;;;;;;;;;;47.3085;7.53187;11.3792;;
;;;;;;;;;;;;;;21.5467;22.2808;19.6056;;
;;;;;;;;;;;;;;46.6203;44.5414;26.3654;;
;;;;;;;;;;;;;;42.5426;56.1469;38.8557;;
;;;;;;;;;;;;;;45.4001;17.1301;19.5056;;
;;;;;;;;;;;;;;28.7517;18.2499;40.4999;;
;;;;;;;;;;;;;;54.2465;42.6652;34.6334;;
;;;;;;;;;;;;;;31.7947;47.996;40.639;;
;;;;;;;;;;;;;;40.4522;19.6767;42.441;;
;;;;;;;;;;;;;;34.1714;46.6202;31.9708;;
;;;;;;;;;;;;;;39.6759;27.6036;15.7234;;
;;;;;;;;;;;;;;22.1518;28.9171;48.7965;;
;;;;;;;;;;;;;;39.9071;12.8631;42.3169;;
;;;;;;;;;;;;;;45.4801;21.0316;21.6623;;
;;;;;;;;;;;;;;26.7589;23.4029;44.9989;;
;;;;;;;;;;;;;;38.1085;14.6992;44.476;;
;;;;;;;;;;;;;;26.0377;28.9658;47.5926;;
;;;;;;;;;;;;;;19.0203;40.2923;44.9188;;
;;;;;;;;;;;;;;48.7588;29.5094;42.9506;;
;;;;;;;;;;;;;;25.9589;39.6746;26.1494;;
;;;;;;;;;;;;;;42.6482;49.8376;19.9573;;
;;;;;;;;;;;;;;46.1651;23.0284;41.6717;;
;;;;;;;;;;;;;;47.4175;43.8448;20.9872;;
;;;;;;;;;;;;;;10.9819;46.2835;44.0122;;
;;;;;;;;;;;;;;36.7428;34.6965;44.5466;;
;;;;;;;;;;;;;;46.0199;20.8898;42.9188;;
;;;;;;;;;;;;;;39.3727;47.0568;46.0326;;
;;;;;;;;;;;;;;38.2529;13.7185;43.4043;;
;;;;;;;;;;;;;;32.5173;48.7803;42.4095;;
;;;;;;;;;;;;;;26.1556;42.1465;31.1894;;
;;;;;;;;;;;;;;8.30901;53.8678;22.8646;;
;;;;;;;;;;;;;;22.6826;28.5521;25.8981;;
;;;;;;;;;;;;;;14.0583;25.1366;43.3905;;
;;;;;;;;;;;;;;12.0486;39.1952;40.8722;;
;;;;;;;;;;;;;;54.881;48.0942;20.6109;;
;;;;;;;;;;;;;;41.5063;41.6137;37.6384;;
;;;;;;;;;;;;;;35.2981;46.5861;44.1075;;
;;;;;;;;;;;;;;26.0102;8.14638;11.4766;;
;;;;;;;;;;;;;;7.96965;48.1693;19.4259;;
;;;;;;;;;;;;;;19.0175;38.2301;50.9567;;
;;;;;;;;;;;;;;28.0192;41.0934;25.8301;;
;;;;;;;;;;;;;;17.7832;38.1303;48.2602;;
;;;;;;;;;;;;;;42.6605;40.5063;24.2181;;
;;;;;;;;;;;;;;49.5538;37.3467;38.8067;;
;;;;;;;;;;;;;;41.4911;42.1436;41.3193;;
;;;;;;;;;;;;;;17.1567;26.349;18.9095;;
;;;;;;;;;;;;;;47.0457;44.3545;20.7238;;
;;;;;;;;;;;;;;42.0153;37.2821;48.2761;;
;;;;;;;;;;;;;;38.9172;17.734;41.2037;;
;;;;;;;;;;;;;;24.7155;20.714;47.6358;;
;;;;;;;;;;;;;;26.112;30.6098;18.9195;;
;;;;;;;;;;;;;;37.9398;51.0538;41.2698;;
;;;;;;;;;;;;;;25.6337;27.9642;45.2057;;
;;;;;;;;;;;;;;21.5601;22.3351;41.4568;;
;;;;;;;;;;;;;;47.5821;20.2823;38.1992;;
;;;;;;;;;;;;;;41.3143;45.2826;47.9575;;
;;;;;;;;;;;;;;40.475;47.832;26.4024;;
;;;;;;;;;;;;;;33.2276;47.5997;37.2846;;
;;;;;;;;;;;;;;30.2765;30.1795;28.2146;;
;;;;;;;;;;;;;;46.3826;42.7414;9.09511;;
;;;;;;;;;;;;;;46.5623;27.3283;18.2918;;
;;;;;;;;;;;;;;46.7716;36.2829;45.6005;;
;;;;;;;;;;;;;;22.8954;46.7931;46.305;;
;;;;;;;;;;;;;;28.7949;26.7107;43.2143;;
;;;;;;;;;;;;;;19.1204;39.9798;7.7913;;
;;;;;;;;;;;;;;31.9664;23.4647;17.9309;;
;;;;;;;;;;;;;;40.0485;22.5494;18.3448;;
;;;;;;;;;;;;;;59.1663;29.6407;48.5648;;
;;;;;;;;;;;;;;41.6202;24.006;47.9107;;
;;;;;;;;;;;;;;46.443;48.8045;45.8912;;
;;;;;;;;;;;;;;24.4646;33.9609;21.2168;;
;;;;;;;;;;;;;;9.88936;47.2122;38.4193;;
;;;;;;;;;;;;;;29.1903;16.7459;38.1324;;
;;;;;;;;;;;;;;48.2947;44.9314;36.5667;;
;;;;;;;;;;;;;;48.2524;41.0905;40.5739;;
;;;;;;;;;;;;;;18.7586;48.1688;52.2242;;
;;;;;;;;;;;;;;36.357;43.1202;47.9738;;
;;;;;;;;;;;;;;15.6075;48.7212;25.4108;;
;;;;;;;;;;;;;;42.326;45.0267;39.4115;;
;;;;;;;;;;;;;;42.2728;48.3443;62.5724;;
;;;;;;;;;;;;;;9.54097;37.4101;68.194;;
;;;;;;;;;;;;;;47.3362;40.7791;48.4956;;
;;;;;;;;;;;;;;43.1863;36.6393;38.2887;;
;;;;;;;;;;;;;;33.7066;51.6646;27.0382;;
;;;;;;;;;;;;;;21.9016;27.10756;30.5999;;
;;;;;;;;;;;;;;38.8896;21.7079;28.5985;;
;;;;;;;;;;;;;;41.2849;48.5123;22.5201;;
;;;;;;;;;;;;;;43.4725;48.4032;45.141;;
;;;;;;;;;;;;;;44.9838;27.1814;26.349;;
;;;;;;;;;;;;;;16.4867;23.283;47.0757;;
;;;;;;;;;;;;;;31.461;20.078;34.0979;;
;;;;;;;;;;;;;;40.6653;47.6655;36.8319;;
;;;;;;;;;;;;;;10.5856;43.6111;58.1534;;
;;;;;;;;;;;;;;47.9792;41.2321;17.8066;;
;;;;;;;;;;;;;;18.906;16.1242;22.3783;;
;;;;;;;;;;;;;;36.3844;42.9437;48.3471;;
;;;;;;;;;;;;;;49.3454;53.361;56.9694;;
;;;;;;;;;;;;;;26.1945;41.1143;27.7911;;
;;;;;;;;;;;;;;21.5798;23.4531;36.4347;;
;;;;;;;;;;;;;;17.2805;18.777;23.2641;;
;;;;;;;;;;;;;;36.8245;27.3526;30.1296;;
;;;;;;;;;;;;;;38.7346;42.8393;44.0134;;
;;;;;;;;;;;;;;11.1818;46.484;28.2042;;
;;;;;;;;;;;;;;48.7122;46.5896;44.0822;;
;;;;;;;;;;;;;;40.7996;22.9899;17.9194;;
;;;;;;;;;;;;;;48.744;46.5316;28.6985;;
;;;;;;;;;;;;;;47.4371;21.2198;29.7182;;
;;;;;;;;;;;;;;42.1113;59.9871;36.5815;;
;;;;;;;;;;;;;;43.1855;41.4004;52.4417;;
;;;;;;;;;;;;;;43.0518;48.4957;20.1712;;
;;;;;;;;;;;;;;10.5255;21.1571;19.1691;;
;;;;;;;;;;;;;;25.166;7.84682;34.1806;;
;;;;;;;;;;;;;;33.8821;23.9279;35.4426;;
;;;;;;;;;;;;;;41.4103;44.7768;39.5164;;
;;;;;;;;;;;;;;19.94;43.2822;27.1556;;
;;;;;;;;;;;;;;47.5401;19.3752;10.3488;;
;;;;;;;;;;;;;;21.4833;31.9802;40.6165;;
;;;;;;;;;;;;;;46.5675;44.3473;49.0779;;
;;;;;;;;;;;;;;20.4111;41.0111;41.9718;;
;;;;;;;;;;;;;;25.8409;33.138;40.9693;;
;;;;;;;;;;;;;;22.6897;43.4987;22.6173;;
;;;;;;;;;;;;;;8.35736;38.7384;43.9198;;
;;;;;;;;;;;;;;44.3607;28.1223;28.5009;;
;;;;;;;;;;;;;;38.2527;20.6224;12.2205;;
;;;;;;;;;;;;;;18.9164;24.8745;19.4779;;
;;;;;;;;;;;;;;53.1516;30.5547;48.7244;;
;;;;;;;;;;;;;;39.8232;42.8987;22.3132;;
;;;;;;;;;;;;;;24.5824;50.6895;47.3612;;
;;;;;;;;;;;;;;44.1644;50.562;34.5256;;
;;;;;;;;;;;;;;28.3289;40.2404;48.0323;;
;;;;;;;;;;;;;;44.8698;41.1861;32.5889;;
;;;;;;;;;;;;;;46.9431;26.1868;50.005;;
;;;;;;;;;;;;;;19.9994;37.1414;47.4426;;
;;;;;;;;;;;;;;20.6767;47.8255;44.9397;;
;;;;;;;;;;;;;;41.6156;45.749;25.7433;;
;;;;;;;;;;;;;;46.0502;28.2316;21.9926;;
;;;;;;;;;;;;;;49.5004;40.499;30.422;;
;;;;;;;;;;;;;;45.7159;21.1749;17.7074;;
;;;;;;;;;;;;;;17.5195;46.3935;50.1044;;
;;;;;;;;;;;;;;41.9619;38.9717;41.4793;;
;;;;;;;;;;;;;;9.72775;18.53;30.5294;;
;;;;;;;;;;;;;;41.9939;46.4694;16.7611;;
;;;;;;;;;;;;;;36.8631;35.2356;44.3489;;
;;;;;;;;;;;;;;37.9083;27.7097;26.0563;;
;;;;;;;;;;;;;;24.487;46.5163;8.92786;;
;;;;;;;;;;;;;;30.7561;43.2961;43.9641;;
;;;;;;;;;;;;;;40.4631;26.9582;28.6204;;
;;;;;;;;;;;;;;27.571;17.1632;20.03;;
;;;;;;;;;;;;;;8.097;24.9829;20.1732;;
;;;;;;;;;;;;;;49.4943;44.6767;27.6356;;
;;;;;;;;;;;;;;44.879;28.445;21.0916;;
;;;;;;;;;;;;;;26.1815;37.6876;45.9013;;
;;;;;;;;;;;;;;43.4811;24.9031;42.4065;;
;;;;;;;;;;;;;;25.4344;28.5095;36.4708;;
;;;;;;;;;;;;;;52.1425;23.5267;29.9188;;
;;;;;;;;;;;;;;40.8289;38.5511;39.3711;;
;;;;;;;;;;;;;;21.8831;43.4273;44.2949;;
;;;;;;;;;;;;;;38.3365;49.0852;18.7863;;
;;;;;;;;;;;;;;41.6774;25.083;44.518;;
;;;;;;;;;;;;;;40.8357;28.6234;40.3963;;
;;;;;;;;;;;;;;26.8159;23.1619;36.0783;;
;;;;;;;;;;;;;;39.3613;19.3333;39.9001;;
;;;;;;;;;;;;;;42.534;46.5887;16.2708;;
;;;;;;;;;;;;;;15.7536;38.648;36.3509;;
;;;;;;;;;;;;;;23.2447;8.7603;16.8803;;
;;;;;;;;;;;;;;44.5194;15.0597;37.9929;;
;;;;;;;;;;;;;;49.5764;19.8539;47.6943;;
;;;;;;;;;;;;;;14.3449;43.5599;42.5344;;
;;;;;;;;;;;;;;24.7664;33.0016;16.3869;;
;;;;;;;;;;;;;;43.9517;40.8792;47.6539;;
;;;;;;;;;;;;;;29.7961;41.4605;43.3109;;
;;;;;;;;;;;;;;20.1053;16.8809;36.6044;;
;;;;;;;;;;;;;;48.3415;21.4306;92.1463;;
;;;;;;;;;;;;;;18.711;28.8275;30.7902;;
;;;;;;;;;;;;;;29.8401;27.121;39.1588;;
;;;;;;;;;;;;;;30.3323;44.4958;57.2195;;
;;;;;;;;;;;;;;;17.5993;38.5666;;
;;;;;;;;;;;;;;;51.9621;34.4741;;
;;;;;;;;;;;;;;;43.8307;39.1583;;
;;;;;;;;;;;;;;;40.3514;43.278;;
;;;;;;;;;;;;;;;23.8482;32.9872;;
;;;;;;;;;;;;;;;23.1289;39.0646;;
;;;;;;;;;;;;;;;40.2393;20.8369;;
;;;;;;;;;;;;;;;22.7857;23.5603;;
;;;;;;;;;;;;;;;50.9569;19.8339;;
;;;;;;;;;;;;;;;43.0663;17.2829;;
;;;;;;;;;;;;;;;46.5029;41.9421;;
;;;;;;;;;;;;;;;41.5009;48.1293;;
;;;;;;;;;;;;;;;8.17388;48.3426;;
;;;;;;;;;;;;;;;18.529;41.878;;
;;;;;;;;;;;;;;;41.4756;42.0152;;
;;;;;;;;;;;;;;;23.4129;23.4246;;
;;;;;;;;;;;;;;;49.2647;24.1265;;
;;;;;;;;;;;;;;;42.7903;44.3704;;
;;;;;;;;;;;;;;;47.1965;41.652;;
;;;;;;;;;;;;;;;44.6081;38.3431;;
;;;;;;;;;;;;;;;37.6958;51.1824;;
;;;;;;;;;;;;;;;47.929;20.4847;;
;;;;;;;;;;;;;;;41.9218;23.5843;;
;;;;;;;;;;;;;;;39.7866;23.9398;;
;;;;;;;;;;;;;;;38.9891;28.9649;;
;;;;;;;;;;;;;;;7.8457;23.5379;;
;;;;;;;;;;;;;;;14.4066;41.2367;;
;;;;;;;;;;;;;;;40.7769;33.7622;;
;;;;;;;;;;;;;;;42.3744;44.6933;;
;;;;;;;;;;;;;;;8.84375;46.6647;;
;;;;;;;;;;;;;;;39.3728;27.1841;;
;;;;;;;;;;;;;;;12.6548;38.6005;;
;;;;;;;;;;;;;;;41.3804;30.284;;
;;;;;;;;;;;;;;;40.9458;43.9003;;
;;;;;;;;;;;;;;;21.6052;41.7167;;
;;;;;;;;;;;;;;;41.2337;29.2729;;
;;;;;;;;;;;;;;;18.8913;41.2602;;
;;;;;;;;;;;;;;;49.2008;23.1964;;
;;;;;;;;;;;;;;;20.0545;24.956;;
;;;;;;;;;;;;;;;41.0574;15.5833;;
;;;;;;;;;;;;;;;45.9446;26.8011;;
;;;;;;;;;;;;;;;41.5091;17.3504;;
;;;;;;;;;;;;;;;34.93;37.9412;;
;;;;;;;;;;;;;;;7.94834;41.5969;;
;;;;;;;;;;;;;;;43.3771;41.1455;;
;;;;;;;;;;;;;;;23.1804;46.6013;;
;;;;;;;;;;;;;;;47.8768;47.1048;;
;;;;;;;;;;;;;;;10.5727;17.2947;;
;;;;;;;;;;;;;;;21.1258;47.5357;;
;;;;;;;;;;;;;;;46.1907;27.0149;;
;;;;;;;;;;;;;;;40.3999;44.5708;;
;;;;;;;;;;;;;;;48.7297;27.2844;;
;;;;;;;;;;;;;;;25.6686;9.08585;;
;;;;;;;;;;;;;;;46.5447;30.7428;;
;;;;;;;;;;;;;;;12.5538;48.9792;;
;;;;;;;;;;;;;;;36.5219;21.0263;;
;;;;;;;;;;;;;;;35.6233;29.1519;;
;;;;;;;;;;;;;;;32.8074;43.876;;
;;;;;;;;;;;;;;;30.979;23.2816;;
;;;;;;;;;;;;;;;44.5118;46.9225;;
;;;;;;;;;;;;;;;48.7587;32.5967;;
;;;;;;;;;;;;;;;39.4728;33.8092;;
;;;;;;;;;;;;;;;27.5994;21.8733;;
;;;;;;;;;;;;;;;33.8274;28.7157;;
;;;;;;;;;;;;;;;30.3913;44.1731;;
;;;;;;;;;;;;;;;23.3677;8.07379;;
;;;;;;;;;;;;;;;35.0713;28.4032;;
;;;;;;;;;;;;;;;32.3114;22.5583;;
;;;;;;;;;;;;;;;41.2514;40.7453;;
;;;;;;;;;;;;;;;44.8988;43.1781;;
;;;;;;;;;;;;;;;20.0407;44.6567;;
;;;;;;;;;;;;;;;37.7748;41.0872;;
;;;;;;;;;;;;;;;47.2948;44.826;;
;;;;;;;;;;;;;;;14.8628;40.4856;;
;;;;;;;;;;;;;;;25.5762;41.6923;;
;;;;;;;;;;;;;;;42.7023;40.3283;;
;;;;;;;;;;;;;;;43.5188;42.5206;;
;;;;;;;;;;;;;;;18.5124;46.3187;;
;;;;;;;;;;;;;;;38.5721;27.6554;;
;;;;;;;;;;;;;;;21.5601;48.6131;;
;;;;;;;;;;;;;;;31.7427;30.189;;
;;;;;;;;;;;;;;;47.1699;28.0694;;
;;;;;;;;;;;;;;;25.9868;42.242;;
;;;;;;;;;;;;;;;44.8132;31.3339;;
;;;;;;;;;;;;;;;22.4782;35.321;;
;;;;;;;;;;;;;;;21.1032;41.0377;;
;;;;;;;;;;;;;;;42.1189;31.5877;;
;;;;;;;;;;;;;;;45.8704;45.4741;;
;;;;;;;;;;;;;;;17.8833;26.6554;;
;;;;;;;;;;;;;;;47.2017;15.0517;;
;;;;;;;;;;;;;;;34.4862;46.8829;;
;;;;;;;;;;;;;;;21.8857;41.5282;;
;;;;;;;;;;;;;;;19.3723;27.173;;
;;;;;;;;;;;;;;;23.3912;26.9742;;
;;;;;;;;;;;;;;;31.6807;61.46;;
;;;;;;;;;;;;;;;18.4517;41.6796;;
;;;;;;;;;;;;;;;39.6574;39.804;;
;;;;;;;;;;;;;;;26.877;19.9606;;
;;;;;;;;;;;;;;;45.0081;61.0377;;
;;;;;;;;;;;;;;;32.9283;33.2334;;
;;;;;;;;;;;;;;;36.8777;39.8409;;
;;;;;;;;;;;;;;;16.4818;41.4202;;
;;;;;;;;;;;;;;;25.0292;20.8154;;
;;;;;;;;;;;;;;;43.7882;23.6951;;
;;;;;;;;;;;;;;;31.0167;47.7817;;
;;;;;;;;;;;;;;;11.0447;37.1592;;
;;;;;;;;;;;;;;;41.8164;22.2249;;
;;;;;;;;;;;;;;;37.0634;42.8672;;
;;;;;;;;;;;;;;;21.5733;20.8552;;
;;;;;;;;;;;;;;;26.0592;28.4712;;
;;;;;;;;;;;;;;;18.5869;20.0514;;
;;;;;;;;;;;;;;;24.9103;22.2307;;
;;;;;;;;;;;;;;;40.7516;42.1907;;
;;;;;;;;;;;;;;;21.6869;12.6921;;
;;;;;;;;;;;;;;;50.7037;23.9883;;
;;;;;;;;;;;;;;;54.3411;44.2467;;
;;;;;;;;;;;;;;;26.1987;40.5413;;
;;;;;;;;;;;;;;;21.1646;45.6142;;
;;;;;;;;;;;;;;;20.1049;25.1547;;
;;;;;;;;;;;;;;;46.1402;30.2156;;
;;;;;;;;;;;;;;;39.2969;37.0789;;
;;;;;;;;;;;;;;;46.0221;45.2414;;
;;;;;;;;;;;;;;;50.7709;49.1982;;
;;;;;;;;;;;;;;;23.2912;41.4631;;
;;;;;;;;;;;;;;;12.4355;30.022;;
;;;;;;;;;;;;;;;21.5542;41.0236;;
;;;;;;;;;;;;;;;49.3482;20.2606;;
;;;;;;;;;;;;;;;25.8351;42.9437;;
;;;;;;;;;;;;;;;43.8201;41.5288;;
;;;;;;;;;;;;;;;43.0065;11.9216;;
;;;;;;;;;;;;;;;42.804;47.5568;;
;;;;;;;;;;;;;;;51.3132;32.2675;;
;;;;;;;;;;;;;;;8.77823;45.79;;
;;;;;;;;;;;;;;;20.1131;45.3994;;
;;;;;;;;;;;;;;;43.2759;40.7598;;
;;;;;;;;;;;;;;;51.1941;43.1862;;
;;;;;;;;;;;;;;;42.1291;42.2212;;
;;;;;;;;;;;;;;;21.7063;41.9779;;
;;;;;;;;;;;;;;;13.273;40.7613;;
;;;;;;;;;;;;;;;22.9101;44.549;;
;;;;;;;;;;;;;;;37.9957;23.3379;;
;;;;;;;;;;;;;;;44.5998;21.5009;;
;;;;;;;;;;;;;;;46.3844;45.858;;
;;;;;;;;;;;;;;;39.0041;44.5227;;
;;;;;;;;;;;;;;;47.4473;34.7364;;
;;;;;;;;;;;;;;;31.3344;46.3583;;
;;;;;;;;;;;;;;;26.3299;45.4825;;
;;;;;;;;;;;;;;;39.631;50.1612;;
;;;;;;;;;;;;;;;42.4406;45.2497;;
;;;;;;;;;;;;;;;35.0856;25.1511;;
;;;;;;;;;;;;;;;40.5719;47.5839;;
;;;;;;;;;;;;;;;34.5775;48.4574;;
;;;;;;;;;;;;;;;20.4329;36.6299;;
;;;;;;;;;;;;;;;46.2087;28.3887;;
;;;;;;;;;;;;;;;21.7997;46.5017;;
;;;;;;;;;;;;;;;22.9514;34.789;;
;;;;;;;;;;;;;;;45.6086;43.2263;;
;;;;;;;;;;;;;;;44.5104;25.1396;;
;;;;;;;;;;;;;;;37.0348;18.8063;;
;;;;;;;;;;;;;;;34.1768;49.3459;;
;;;;;;;;;;;;;;;17.7448;39.5598;;
;;;;;;;;;;;;;;;48.1712;46.6189;;
;;;;;;;;;;;;;;;18.8099;46.3124;;
;;;;;;;;;;;;;;;21.2751;30.282;;
;;;;;;;;;;;;;;;44.6964;31.0229;;
;;;;;;;;;;;;;;;38.98;16.4131;;
;;;;;;;;;;;;;;;31.1031;25.3364;;
;;;;;;;;;;;;;;;43.7725;32.2165;;
;;;;;;;;;;;;;;;41.2982;47.0545;;
;;;;;;;;;;;;;;;29.256;42.5021;;
;;;;;;;;;;;;;;;41.312;8.6548;;
;;;;;;;;;;;;;;;20.1006;14.4597;;
;;;;;;;;;;;;;;;10.7333;11.0623;;
;;;;;;;;;;;;;;;7.92186;47.0061;;
;;;;;;;;;;;;;;;22.5212;28.3186;;
;;;;;;;;;;;;;;;10.2022;36.183;;
;;;;;;;;;;;;;;;20.6487;46.4624;;
;;;;;;;;;;;;;;;50.4205;32.8764;;
;;;;;;;;;;;;;;;29.0893;45.4675;;
;;;;;;;;;;;;;;;40.8652;40.5766;;
;;;;;;;;;;;;;;;10.257;21.2361;;
;;;;;;;;;;;;;;;20.7715;21.2773;;
;;;;;;;;;;;;;;;10.9891;43.2935;;
;;;;;;;;;;;;;;;50.6099;9.83144;;
;;;;;;;;;;;;;;;25.5007;60.1384;;
;;;;;;;;;;;;;;;40.9647;14.4006;;
;;;;;;;;;;;;;;;61.9582;21.5242;;
;;;;;;;;;;;;;;;55.3847;41.8476;;
;;;;;;;;;;;;;;;16.874;17.7233;;
;;;;;;;;;;;;;;;27.2601;44.4049;;
;;;;;;;;;;;;;;;45.6124;35.7665;;
;;;;;;;;;;;;;;;22.2816;34.7916;;
;;;;;;;;;;;;;;;31.3769;31.7368;;
;;;;;;;;;;;;;;;40.125;18.4165;;
;;;;;;;;;;;;;;;13.5355;43.5346;;
;;;;;;;;;;;;;;;38.3337;41.42;;
;;;;;;;;;;;;;;;36.8866;25.1145;;
;;;;;;;;;;;;;;;51.5116;40.5786;;
;;;;;;;;;;;;;;;40.7176;44.5587;;
;;;;;;;;;;;;;;;28.0887;;;